,ATT_DesPitch,ATT_DesRoll,ATT_DesYaw,ATT_ErrRP,ATT_ErrYaw,ATT_Pitch,ATT_Roll,ATT_TimeMS,ATT_Yaw,BARO_Alt,BARO_CRt,BARO_Press,BARO_Temp,CTUN_Alt,CTUN_AngBst,CTUN_BarAlt,CTUN_CRt,CTUN_DAlt,CTUN_DCRt,CTUN_DSAlt,CTUN_SAlt,CTUN_ThrIn,CTUN_ThrOut,CTUN_TimeMS,CURR_Curr,CURR_CurrTot,CURR_ThrInt,CURR_ThrOut,CURR_TimeMS,CURR_Vcc,CURR_Volt,DU32_Id,DU32_Value,ERR_ECode,ERR_Subsys,EV_Id,GPS_Alt,GPS_GCrs,GPS_HDop,GPS_Lat,GPS_Lng,GPS_NSats,GPS_RelAlt,GPS_Spd,GPS_Status,GPS_T,GPS_TimeMS,GPS_VZ,GPS_Week,IMU_AccX,IMU_AccY,IMU_AccZ,IMU_GyrX,IMU_GyrY,IMU_GyrZ,IMU_TimeMS,MAG_MagZ,MAG_OfsX,MODE_Mode,MODE_ThrCrs,MSG_Message,NTUN_DAccX,NTUN_DAccY,NTUN_DPosX,NTUN_DPosY,NTUN_DVelX,NTUN_DVelY,NTUN_PosX,NTUN_PosY,NTUN_TimeMS,NTUN_VelX,NTUN_VelY,PARM_Name,PARM_Value,PM_I2CErr,PM_INAVErr,PM_INSErr,PM_MaxT,PM_NLon,PM_NLoop,PM_PMT,RAD_Fixed,RAD_Noise,RAD_RSSI,RAD_RemNoise,RAD_RemRSSI,RAD_RxErrors,RAD_TxBuf,RCIN_C1,RCIN_C10,RCIN_C11,RCIN_C12,RCIN_C2,RCIN_C3,RCIN_C4,RCIN_C5,RCIN_C6,RCIN_C7,RCIN_C8,RCIN_C9
ATT_DesPitch,1.0,-0.012015471770495136,-0.01683194653115114,-0.0332616215530351,-0.0503293938701969,0.6637103113643911,0.007582065981310073,0.044065584215920724,-0.0153612716301353,-0.050767447942456724,-0.018405470772285316,0.049840559897995344,-0.0003647914635010942,-0.052844350272811244,-0.12316867756152672,-0.060468082759090554,-0.01903379858884434,-0.044796357219021934,-0.020101930505421865,-6.911759808461815e-05,0.006557630100124416,-0.05099658080077484,-0.042756500833071934,0.03779294608772211,-0.04827042585423626,0.039235477828660076,0.04841083000286218,-0.04447872409502338,0.03799322581728829,0.005079874699512594,-0.00022422688720394326,0.004722574700625975,0.021911647119704,0.0038870172060658215,0.0020126552363563073,-0.028960042803753125,-0.05515070167080395,-0.006003982930850154,0.0012062362041543348,0.0012953327100412835,0.01582278101344381,-0.0002643224008202785,-0.05916938333133747,-0.161706373535542,-0.006171088357853221,0.038422649556076036,0.03530480770108245,0.021447616492132587,-0.007661057708769606,0.26219270379678355,-0.001587451376982124,-0.0028939593413485768,0.00035920277390198203,0.09192058219979066,-0.002446749647372555,0.036506128715145074,0.03511069181953549,0.004504657766650695,0.02383492279696221,0.022589422542370858,0.012199114042193971,-0.011699065013115625,-0.002636139770602991,-0.002725862284467795,0.006834252091429387,-0.0026286417437364103,-0.0022779392826069935,-3.5935085601796085e-05,0.015440415943513162,0.043733069873079455,0.0036912489638349227,0.0038982620633804775,-0.009213455782569577,-0.0012090777312522374,-0.005627845677574235,0.013939119637663045,0.0014263616138506922,0.007632067527610263,-0.003659587600538289,0.001131699684926301,0.026006813139165905,0.03498479952488744,-0.004812009529723674,0.025551596024085736,0.02136243041426373,0.03218334535658543,0.03551644402332968,0.0007180103536337239,-0.012857926870368864,-0.003218087514853691,0.005625357748007803,0.001466310319110436,0.5665750606392421,-0.02820034270684341,-0.008394374431724893,0.01612140682995226,-0.0005078838754421786,0.009173584317084444,0.0030435427178924454,-0.004847428022013492
ATT_DesRoll,-0.012015471770495136,1.0,0.002842773024477418,-0.00802080738272658,0.0036821363833556666,-0.00466575271371344,0.5834084557378606,0.006664620436157284,-0.002648273226039309,-0.006068261334097166,0.0005556532352420265,0.003968641281914259,0.008751374282786295,-0.0009342224356647941,0.007416940693638109,-0.0004325667472100597,-0.0036707177205009827,0.001375655723283207,-0.0055520723340669945,-0.0003232575636145136,3.780331143284694e-05,-0.005057803928098887,-0.0007964330338251386,0.003922509736488478,-0.00450552505236409,-0.0012268671384861646,0.00526402950669505,-0.0027733414504935265,0.006087870956016904,0.0030505340080823912,-0.0008798402135177538,-0.00276830624402286,0.002117744669402989,0.00566098437915038,-0.006435636168589724,-0.002104892066502587,0.003559338766977903,0.00827988364207536,0.0029639813442860993,0.011487517199620613,-0.004136238097612274,-0.005605560340279325,0.0016079043119913996,-0.002594788959147258,-0.005331659067849035,0.0051893320809200455,0.008444495566353887,0.0060648305257841465,0.008588852463044751,0.002596365371233662,-0.14322112997091133,0.0040143721959558735,0.12803132073598805,-0.0017605184015439363,0.0497069528200364,0.0025540956194621163,0.010080752172325094,0.004138338204805302,-0.0001799920915872961,0.001653746929968756,0.0010434260165329504,-0.024020486211285923,0.006873152102061502,0.004700021386313937,0.005875809190905329,-0.019156208105620014,0.0009636375921864179,0.00865486031111625,0.002976595569942333,0.005858152514537703,-0.017610760782010536,-0.006872687228438966,0.005178947871133063,-0.000915863758322995,-0.026009774426498787,0.0033015389356779662,-1.9566210045389815e-05,-0.0036696557522072413,-0.006464886995702651,0.00010880277996655763,-0.0033574735438586345,0.004881119061848449,-0.005414841824970398,0.00045639021525346445,0.0008265073365944666,-0.001245835371955946,0.010076645662424237,0.003336996957431585,0.5552488466280142,-0.0027320434983389478,-0.0013289433892275295,-0.011970081201275573,-0.0038301192442987127,-0.0021556854059245453,0.01920062945861372,0.004110503049161613,0.002159167374273064,0.007043114783244874,0.0025451146217485236,-0.0065936525722739584
ATT_DesYaw,-0.01683194653115114,0.002842773024477418,1.0,0.01223593245946443,0.01572440144611618,-0.012149559765395107,0.0020532296465056686,0.0017253655860813033,0.7955672346906784,0.013539868437942046,0.004588031650856999,-0.011563984445222284,0.00261981634805128,0.011960087204280236,0.004632705926021515,0.0077295678911519835,0.0053202692669531435,0.014986731372878202,0.009922813644975994,-0.0006148309052197325,0.0033557454848047864,0.03278242282776718,0.028847143507001304,0.0007260495745936357,0.0340477509544761,0.005373634206537239,-0.008983407164142686,0.027369276892434853,0.002192550868069463,-0.0012683197601867566,0.0028676622550411696,-0.04047560512994133,-0.012072766861770732,-0.009830027822348245,0.003934284174887214,0.01173324960492494,0.010319999304073756,0.10967914917950364,-0.005195843518411074,0.006990376108389103,0.030749716108075812,0.00571474222602866,0.00809043660502706,0.005999641953459563,0.023040876753447917,-0.001249833164857896,-0.004678189844692205,-0.00714919328861764,0.03339753759270258,-0.011042990055669192,-0.002009117354274924,-0.0029479333956511544,0.004273125150245211,-0.0020871196441449905,0.040844440056872384,0.00047030144118864937,-0.02319453835137257,-0.054027123388733105,0.005842464813179765,-0.012571046605286747,0.036564401988923224,-0.0035933441196814514,-0.0491494294233344,0.009254853310342197,0.04256417748495049,-0.011433790737756975,-0.08596585345208943,0.017367792189778488,0.03256188922300519,-0.015929602005766593,-0.008018106503851243,-0.11130610426016155,-0.005200031057299796,0.0032651757636197208,-0.04625730151628534,0.061941832755533124,-0.0014320769584713245,-0.0006181321625513264,0.0005935724408335861,0.0017271144589964854,0.004321741858294285,-0.03617050093061579,-0.005606463545873943,-0.008793019269441293,-0.004601807307152419,-0.009164415344557364,-0.03702673882107456,0.0020988839792994217,-0.0005340116126725209,0.007576605265845317,-0.008763858606423668,-0.005226010306395485,-0.005014003623224128,0.017727117798896058,0.0028898231466870997,0.008924234863781858,0.0008982589853788239,0.01761854978565929,0.004148088351129711,-0.0007042778699797645
ATT_ErrRP,-0.0332616215530351,-0.00802080738272658,0.01223593245946443,1.0,0.3091330543823682,-0.02481640574057034,-0.006352842952501328,0.07115243253452999,0.014583616272487335,0.09002189482261042,-0.010053006767612272,-0.08759039036413964,-0.007351242081181891,0.06574914309020673,0.11368205225349542,0.07182167959173485,-0.0682201170380064,0.021783531548160085,0.011701483079093968,-0.02077487770099243,0.012445111002980373,0.09421360206492367,0.14376845804098384,0.0525692402516725,0.14343447479174892,0.06305570785141802,0.06517143280943866,0.15390346105092506,0.057096556747864784,-0.026194783904708377,-0.13326037643876146,0.008569721704485089,-0.0943004440386408,0.034316676768231476,0.012106664725408679,0.12076650906422404,0.052089812343330655,0.03052612832179484,-0.010962723999071455,0.015021996049921604,0.006148880012704445,0.010869506102605448,0.06522813032945694,0.2453281790676539,0.010562420376288344,0.04951498400633254,0.03210468096852167,0.03196628775659328,0.01387232098203021,-0.019795888416298903,0.010355081160632268,0.02863572865844042,-0.0016673206976689928,0.012603775900397919,0.0014652415086523274,0.0452131119819066,-0.0900615693593959,0.007284305745040113,0.018642676013505638,0.03750134634092531,0.11647891796001111,0.00016431896548608298,-0.0007376878755804525,0.00590159660536937,-0.00032199484837803095,-4.334951756793853e-05,-0.004278595071659336,0.005188983285734901,0.00012686716623875848,0.029230560391111025,-0.0024686189866225624,0.001746971950070523,-0.037165666280417224,0.02204087192020099,0.06666056363534469,0.06502150402774252,-0.0034479441135820874,-0.0360938198988807,0.010726981770335927,0.004433063982884296,-0.031169358615995253,0.06711249376858858,0.007145998560850402,-0.01514590757945231,-0.004613853806538341,-0.0269159943946079,0.0662329765198582,0.00753361213956561,-0.0035786954249468514,-0.004426567011309965,0.008494319820298498,-0.002706316812351759,-0.0257942285151993,0.1189912964776913,-0.029568434188848892,-0.00029482218161594226,-0.003680271581389316,0.011249825897552081,0.006584325351001721,0.002385038251693707
ATT_ErrYaw,-0.0503293938701969,0.0036821363833556666,0.01572440144611618,0.3091330543823682,1.0,-0.03508424079844269,-0.0017248601883998215,0.07312390980321329,0.013567526161281708,0.0800674274084148,0.0031430803938774445,-0.07971550773106673,-0.0015187629651316479,0.06109885395165637,0.07240588609662624,0.06410306021298971,-0.034845168222570944,0.04429787295644087,-0.006652040537353778,-0.01707134267596435,0.0036293063980783143,0.046015621773128394,0.07926554030230254,0.05793936885456791,0.0999708211845324,0.054083522115889474,0.06758711989454215,0.07205233084833434,0.06020665588673811,-0.018831353545650194,-0.08881508324491498,0.02621722827768457,-0.03737998665291553,0.100769909104777,0.03831178681413019,0.09072381961229158,0.060216690293094136,0.023984370407886427,-0.010900316000161848,0.01330314881809998,0.009417273898437528,0.0147254868955719,0.05552060107804919,0.17835391582451354,0.02070080474914084,0.05775090333497652,0.03335158251253767,0.014145010002657476,0.014429754561786001,-0.02136479354526867,0.004138980951272464,0.03454160838352581,-0.0019206276442543938,0.009107887846598654,0.0019515309299610187,0.05366526546921507,-0.07017844561135447,-0.046111380077548586,0.031209579812860423,0.03530918283006764,0.08632173374503094,-0.011881328865570475,-0.010194599095933194,0.013157451041022325,0.0025584224107809985,-0.01896267407495939,-0.00045502043634962727,0.016268218363248887,0.0021028596589805645,0.027378423527872685,-0.02674134749318038,0.009567107365910665,-0.04904094507459342,0.02257114729276437,0.07649905388670407,-0.0017019127901132997,-0.0033247990878290884,-0.024718319638082457,0.015467281582039171,-0.007186105784710163,-0.04723508737716188,0.05359738156042735,0.0028174361032008407,-0.04146170076411396,-0.01754933165096631,-0.06444722195235297,0.06454849555057539,0.0024285045896969932,-0.0021017000587843053,-0.005809143450187988,0.0011374114861949032,0.002253182512519805,-0.033306905031825866,0.06599761347986931,-0.04731309154349804,0.011952312073141314,0.0006822402151409343,0.0063218908397235886,0.002046160387142202,-0.002088760567218316
ATT_Pitch,0.6637103113643911,-0.00466575271371344,-0.012149559765395107,-0.02481640574057034,-0.03508424079844269,1.0,-0.002759783028160421,0.056190901902322475,-0.014004898379837802,-0.03995655314907185,-0.011058149504349973,0.03311230146303133,0.0228923759309229,-0.05213075178675165,-0.12646297485541236,-0.059557636552729845,-0.0168052622951474,-0.04649857870841106,-0.02651139668729303,-0.00017265478057856704,0.0029057242300630764,-0.049104455326474186,-0.047939238438993836,0.051670948266587656,-0.05480572363880481,0.04031603967577172,0.05364431243419962,-0.05365335030814631,0.05455379675078248,0.00784997821609914,0.007183606847412675,0.006637720542672905,0.024775530904254613,-0.005525372944094536,0.0074869030289539135,-0.02166126446825242,-0.056291976408878085,-0.004028976906915052,0.001956617822072809,0.0009875162878835414,0.019032388716212725,0.0009766107992389176,-0.062021901797276124,-0.14902336293602478,0.0002511254929451993,0.04748397137659505,0.03849981073535316,0.017803214531350607,0.0032231701059919834,0.34686387309805156,0.003985921256465007,-0.005771583439269061,0.003565403399288805,-0.022337051822935727,-0.005887379083250394,0.05270298911861644,0.0421278033906231,0.02075908824292779,0.011026364524767827,0.02032249853366402,-0.0009024607279887024,-0.00347909693926977,-0.001978912334468589,-0.0027128502072490583,0.007733051006027496,0.003525802397331365,0.005259820650272862,-0.001580740293351613,0.01776725673402278,0.041915467336344006,0.007946576002817165,0.012656892257531051,-0.003964581852818661,0.0005196028156249467,0.031151573867403838,0.025142832752473806,0.0014239406383144177,0.0030385741592537465,-0.004547192597928844,-0.0005273446067114474,0.028997126298889273,0.033608297243174504,-0.009581909989110482,0.026773036854701796,0.020717889608921472,0.030911394982797047,0.03663448646645805,0.0008155374848228423,-0.0034260001003149337,-0.020684184614237287,-0.007055391428699628,-0.011772745962491359,0.3919306852125442,-0.02954480963390933,-0.016748067259252538,0.00990890536899483,0.000735486024706595,0.006612991299112674,0.006128721283268405,-0.013967000620572313
ATT_Roll,0.007582065981310073,0.5834084557378606,0.0020532296465056686,-0.006352842952501328,-0.0017248601883998215,-0.002759783028160421,1.0,0.016522870748330205,-0.008593170021966969,-0.003052828870404379,0.0004745751279621548,-0.0005973244388145926,0.01536754509392726,-0.003482187343409558,-0.001348084008671385,0.0019441106823629318,-0.011308281953050694,0.0014950962568107602,-0.010321460253495016,-0.0030134945100834484,0.008725125368594367,0.001899420251725755,0.008271396202871614,0.011950317365495318,-0.007376703995275488,0.008426875953088223,0.007000669547006914,0.0035608479494769925,0.011721258622689386,-0.00011212344802636253,-0.0022030348138952186,-0.0066573897290624255,-0.003933653365727447,0.004540494291644178,0.0018109025416493617,0.003353965421132958,0.0034782474669790985,0.007408517141988698,0.007181107033455274,0.0036972169925638737,-0.0008802305296433787,-0.002929703334071757,-0.0011167472603801324,-0.007435228341845544,0.004638582211352974,0.0064630139983064185,0.008367187640250351,0.01018592125369562,0.017191772581443842,0.005444085376289778,-0.22696583203423967,0.0003119783030484264,-0.01635128165935572,0.004292182345864084,0.05682424526757985,-0.0005375887219098051,-0.003160885734422147,-0.0087822795402345,-0.0029054713417552675,-0.00031574959920576393,0.011133962989685262,-0.018545944018513186,0.011569128578043377,0.003186178028892627,0.0005580656453147506,-0.014912179758966106,0.005455117138283178,0.00684219677432748,-0.0036549061957764604,0.010713140309239928,-0.01983713693394862,-0.007861839297749279,0.006954372724394891,0.0027150731125171173,0.033073954738258936,0.0076031946246240215,0.009129606685939344,-0.00437161701946715,-0.0070393178723005935,0.00185903253910119,-0.0017861155060998337,-0.00014737290259278109,-0.0043949920644941924,0.00011197195338349006,0.005178611155649945,0.0015893419302193833,0.011454395611748389,0.0031403357740438153,0.33634966786112624,0.022181237180739406,0.023386752254620592,0.011473141087426024,0.0034301300322161126,-0.0020446584543538544,0.029753586925829648,0.004094502786803426,0.0066026313805761655,0.0027575396406215756,0.0024809317319161844,0.008535404931021465
ATT_TimeMS,0.044065584215920724,0.006664620436157284,0.0017253655860813033,0.07115243253452999,0.07312390980321329,0.056190901902322475,0.016522870748330205,1.0,0.006132798771402288,0.0007355386962361585,-0.06989664834710478,-0.03831548202162279,0.00426283732500466,-0.003231819881891193,-0.013686015436100077,-0.001802200059640619,-0.13018976044493155,-0.0020538050542593038,-0.127452377748429,-0.00930033777123569,0.014713468735788826,-0.05831991275459215,0.10191432084356236,0.9432386394462938,0.005316947140360994,0.897084754569575,0.9298102092028991,0.10426000655955125,0.9643953469097216,0.010283079618233298,-0.5472309714182926,0.015015330631856536,0.04407211701035699,-0.09016767390998738,-0.01048787310244702,0.1115144769973903,-0.04348440454805358,0.05946336935857643,-0.17155578518101797,0.0013758447033062776,0.02455401127826858,0.2531970465245118,-0.007442786960829662,-0.006001537398288519,0.11759064698654609,0.8615678939967252,0.6863838271896197,0.152397870203681,0.06675357259582934,0.056245281744599904,0.036467780371402914,0.061169763767214114,0.005117003995175976,0.014571574325000225,0.01057083964594341,0.8927422778165396,-0.07466147422046363,-0.12044695486933807,0.27228331799146605,0.29408100040696283,0.07543643573866729,0.01892829516221114,0.032053918370063945,0.0011113334663110333,-0.002880647584166767,0.013654069439452342,0.011909276882230308,0.00048634973837487027,-0.003491486339491974,0.8536267527519391,0.012142821665038026,0.014139109088185147,-0.09107373408461766,0.04930875063179036,0.6505728060659243,0.33849603659685107,-0.0014301087432658378,-0.28026832579110433,-0.03189325131929712,-0.03861591010055102,-0.07004454495298021,0.777500871601876,-0.03299202082163289,0.06607930704155895,0.020861623893915073,0.07076192982200477,0.7641205154139835,0.015195099603841232,0.008759247762805157,0.0024561437330636146,0.013401919528991457,0.016796799095624315,0.04528759361610957,-0.016630534287745687,-0.08403121189636842,0.051604636709258654,0.02713952262535488,0.030719307899906824,0.015645654316833284,0.010623011843692364
ATT_Yaw,-0.0153612716301353,-0.002648273226039309,0.7955672346906784,0.014583616272487335,0.013567526161281708,-0.014004898379837802,-0.008593170021966969,0.006132798771402288,1.0,0.01293994407485223,0.003861394784292492,-0.01207008665363688,0.004730155108869382,0.010050796525771353,-0.0007913264733820575,0.0039877874749792794,0.0026369715959809604,0.013931630593491569,0.008932854547068022,-0.00348034981106557,0.004800036078068995,0.009891339314136858,0.002065867591850982,0.004260913435902635,0.01245175349008517,0.025585854542372704,0.013192105556263604,0.005313811500960277,0.007913135019394578,-0.0010266686626776078,0.002918484132271764,-0.00274433199937625,0.002918530518936721,-0.0028754038884171787,0.009129132977063185,0.011113356381691912,0.009876791962816125,0.13105083498299075,-0.002341091739608386,0.007565283882356392,0.03183756589267172,0.00501224866850878,0.0028920191294369503,0.004393310419359372,0.026912392195508523,0.011357193284767421,0.00374555334457626,-0.006551140293415616,0.03308914085787809,-0.016487273762890005,-0.0027474517425527876,0.002364513517653464,0.0014439777417714428,-0.0011331428953514331,0.0016533786192122722,0.012263364751015448,-0.02056399908272197,-0.0490503634148992,0.013459541622238431,0.0033311654555711907,0.040913366965864534,-0.004786795897047736,-0.043395130619749166,0.006080973951549011,0.03638490746395776,-0.009772164313777924,-0.10071518865753747,0.01557448017362023,0.024450866276885596,-0.01494942825252839,-0.007131460942798022,-0.1332861779315498,-0.0015630185804491254,0.0021281487148199544,-0.05287189474331259,0.07332470395609972,0.008344824681294145,-0.006457528539089223,-0.0034185310356711425,-0.0032991294966727416,-0.013041398210067912,-0.03266216963082085,-0.0035496033541940093,-0.007730867238230336,-0.003463294153494081,-0.00852357849340319,-0.03525781257067124,0.0033590706875912704,-4.5174073288001236e-05,0.010417856801897283,-0.0024452508861123818,-0.00341064758282767,-0.0049137187527066245,0.01765148262366514,-0.006222956053121645,0.004790740872904007,-0.0007337131434759002,0.016245588922906843,0.005302802187370513,0.0001929204827341743
BARO_Alt,-0.050767447942456724,-0.006068261334097166,0.013539868437942046,0.09002189482261042,0.0800674274084148,-0.03995655314907185,-0.003052828870404379,0.0007355386962361585,0.01293994407485223,1.0,0.0659047499027955,-0.9086629031233368,0.0034098067349547035,0.8564251816432656,0.09852565264782055,0.9179788466144714,-0.0015904180488920245,0.7198666919205251,0.04877646844373176,0.0478059311827598,0.07639899880652419,0.2399071269185173,0.2831674150762308,0.0036077777011620637,0.228991947569204,0.03591479074505868,-0.016739444827977217,0.2945502913522199,0.0025565927362307104,-0.035601032645305994,-0.20205387681463965,,-0.1967087941970651,0.014862599185978658,-0.01836100117669047,0.26602153537413065,0.6312804836677236,0.04299065475472534,-0.10633903486710711,0.03869350044301992,0.023633176151242333,0.13208102392953763,0.8450078635638216,0.2935771780906509,0.11026703093761167,-0.0009451117029910706,-0.024632332506436004,-0.046529820067991286,0.06563978357442843,-0.043267917783069064,0.008585691664012433,0.03696839228632783,-0.0002698061261104647,0.003376935722239477,-1.0456432413182974e-05,-0.0026587144531763436,0.024964720870830164,-0.05278966643370807,0.1756895478695709,0.055589668263630675,0.1688033635664767,0.017676438908308924,-0.029691893314578447,0.0061619105224578075,-0.004834297764795888,0.002483599242773992,-0.01097042664192194,0.009762075350478808,0.0002593627644403558,-0.14049018794711332,-0.015534457290507734,0.00013024546626288626,-0.01426161900704566,0.020172583632945284,-0.006242034176148254,0.08126369333163984,0.00026699329799574053,-0.09057334705381902,0.05424958313322408,0.03171975373037725,-0.10246777345680927,0.010900559191475062,0.06875182568405912,-0.16662412266492593,-0.03692621281912408,-0.24316194642394842,0.031479198484511695,0.02320209595681737,-0.0042926882623156954,0.006992586800094827,0.06370884386725788,0.04045258826259201,-0.019809099278221092,0.2487952740191306,0.030535005029786316,0.12571776402698426,-0.007984611359362319,0.026858593779820323,0.014733047825860332,0.13195226483692163
BARO_CRt,-0.018405470772285316,0.0005556532352420265,0.004588031650856999,-0.010053006767612272,0.0031430803938774445,-0.011058149504349973,0.0004745751279621548,-0.06989664834710478,0.003861394784292492,0.0659047499027955,1.0,-0.05768461750163937,0.02847121832367377,0.0077422826138202816,0.03887393362946171,0.06780682690825747,0.3869398903519976,0.015743688324293605,0.21586170396872548,0.0038837902233326183,0.0020359808577396572,0.13229954808545755,0.018514414294514944,-0.06757628161171803,0.05477535713345119,-0.08499976874770916,-0.08529177857295524,0.05322181046690655,-0.06996451400939535,-0.010754617659501212,0.03492203192105602,,-0.01612102165378558,0.013335493871638156,0.018755717394538688,0.006242804652440489,0.019070200218186787,-0.0010567548354533936,0.03721184914890462,0.0031067720690495814,0.004399857560814796,-0.044631887552816794,0.007094594268689437,0.022577638117124956,-0.040111232041785974,-0.06544622949394614,-0.05422644464326068,-0.46386047144486925,-0.0009284825047599214,-0.01084925210215448,0.0003226828563029714,0.047083967698498014,-0.003371174028913107,0.004649306977503993,-0.0019433007671571822,-0.06733078897899965,0.012848964285634472,-0.001083448095776195,-0.04481145219077508,-0.057249010932382494,-0.06478458502634411,-0.011294180908015372,0.002170997528004726,-0.0022344694370954403,0.003660897778499243,-0.00825819041343651,-0.0032898404917811627,0.0009021715983075849,0.003069387163317858,-0.08491576674095594,-0.003676403380850288,-0.007464001000413272,-0.0022277723701506955,-0.0020701010822537654,-0.035027778310242265,-0.0343539653796686,0.10405181993964253,0.02379122829437826,-0.025659592725524195,0.01110701756411396,0.02191783347679594,-0.1072583382078651,-0.0044405688692813585,0.003341426852992844,0.004306737549371136,0.008340646517594941,-0.10913548556038015,-0.0007185697336373126,0.002224082693332056,0.00014442086752074022,0.005605308959658792,-0.004003705681733254,-0.023610516168592062,0.09232166834142388,-0.013352050353454173,-0.010185808826517158,-0.00206424952265703,-0.00904130204111731,-0.004640683473710681,-0.008542178183304057
BARO_Press,0.049840559897995344,0.003968641281914259,-0.011563984445222284,-0.08759039036413964,-0.07971550773106673,0.03311230146303133,-0.0005973244388145926,-0.03831548202162279,-0.01207008665363688,-0.9086629031233368,-0.05768461750163937,1.0,-0.03255515418480575,-0.7870707078321334,-0.0927787170773122,-0.8199376725346833,0.0038404531163989475,-0.675633885281322,-0.04219270730603231,-0.04908219253202335,-0.07134392823695208,-0.2213500897474334,-0.26252860112511345,-0.04275372709567361,-0.21852309563202232,-0.05581520294506194,-0.009271500323253247,-0.26439691448091696,-0.03512175872072722,0.04030381289820745,0.2015684687652407,,0.18173259650428508,-0.016674576001116704,0.0025889490037563677,-0.24414229693121917,-0.6016237195901869,-0.03184314484326134,0.09042459950211557,-0.038815084536837054,-0.012285760352496723,-0.12035433105673687,-0.7229838877095556,-0.2710152811208882,-0.08523723130183723,-0.030677986969326318,-0.0031110509256976554,0.04083776689952402,-0.024058537829470934,0.03872443154132014,-0.006644693027357866,-0.0346343528177031,-0.0018300876252314695,-0.0061025062334005295,-0.0010069062219978367,-0.03229183851151263,-0.02137204756099483,0.02247606979839729,-0.1707248259923061,-0.051550075767998964,-0.16496936172727802,-0.016221106976373797,0.02604291645476951,-0.010057494248377192,0.008278437387961255,-0.0015170064041369199,0.007593108650740478,-0.015132555735824352,0.006224627872318099,0.11826881806717643,0.015053637446441056,-0.0005346491861479869,0.025206309968746562,-0.022090541618249047,-0.07782458610589493,-0.06688397670846205,0.0002669956184791556,0.0870908502271034,-0.05806894445783418,-0.033204920282251235,0.09996240183531567,-0.02225320572071359,-0.060208046720621855,0.15973236440043206,0.026477978711153132,0.22432040428850225,-0.031500631612129404,-0.017942724022727348,0.004681933956969959,-0.00463543343768633,-0.06458618762372269,-0.03546682275347731,0.022521687943914143,-0.2397245370735741,-0.02951667271709749,-0.12585144543431728,0.0032984034867892574,-0.017766176303184965,-0.018228597668289978,-0.13213123687903308
BARO_Temp,-0.0003647914635010942,0.008751374282786295,0.00261981634805128,-0.007351242081181891,-0.0015187629651316479,0.0228923759309229,0.01536754509392726,0.00426283732500466,0.004730155108869382,0.0034098067349547035,0.02847121832367377,-0.03255515418480575,1.0,0.0027285014218597723,0.005829763251169226,0.013967414475487994,0.04474005076895915,-0.009823760453460227,0.04058442364942554,-0.007066938891407807,0.014014645652041609,0.014211310674220066,0.008433512002714624,-0.01666661774766851,0.006978181651665989,-0.00233028203956673,-0.0411098318412742,0.018602126146969752,0.028657355392063683,-0.01159574403249503,0.028495557363508527,,-0.010933369272263037,0.006863579099497483,0.041833893143270066,0.008403459965034464,-0.013715067137166194,0.008689791283777577,0.018988259196700965,0.019137182073042276,0.012224714379770433,-0.01541029686897732,0.01095131433123008,-0.0025641078363826293,0.005602268135291965,0.010324852033538239,-0.011243422497718635,-0.03627010033308829,0.0637614633260107,0.01110969746737516,-0.003982728351372828,-0.0049754283118245155,0.0016860020521481862,-0.0024999323368615307,0.005832231956692758,0.018207059013563225,-0.027644954804282137,0.040758394670088516,-0.014864953568676079,-0.054380668254440746,-0.03006482441592931,0.0004975851235964367,0.0021851293242457206,0.009785512023419466,0.023180001560910515,-0.0036751266887943036,0.007639649770704813,0.008941071012660982,0.016925988034722925,-0.08237511959735914,-0.005968880766857902,0.006342614829278027,-0.06303317650756665,0.013960320426495814,0.048307134902489404,0.11500639546170682,0.0007699259678892503,-0.06545682484962366,-0.06891802019121535,0.02181779631904678,0.05459139559133674,-0.1426077488350936,-0.016489297515730108,0.03186151770789369,0.04366717911399581,0.05201569110395734,-0.13106746515427173,-0.015802148927196488,0.005667664036726748,0.03607049094188059,0.031016876944033548,0.011607684128297088,0.004663003375791484,0.030762122523545814,0.007623471613375272,-0.008356832335196119,-0.0029256653091387186,-0.027156908682828246,0.015521994422152905,-0.02778449782238033
CTUN_Alt,-0.052844350272811244,-0.0009342224356647941,0.011960087204280236,0.06574914309020673,0.06109885395165637,-0.05213075178675165,-0.003482187343409558,-0.003231819881891193,0.010050796525771353,0.8564251816432656,0.0077422826138202816,-0.7870707078321334,0.0027285014218597723,1.0,0.10568085013484768,0.8251466473590512,0.11129898699754871,0.7115825529513785,0.07384722789517742,0.1194968038707914,0.1123818867826778,0.2130792075481244,0.2656072867912926,-0.0017049818967206712,0.20241806987722824,0.013971753821944143,0.001308208258638465,0.26137254707856833,0.0040813337469992874,-0.03540007367824744,-0.18103702442026334,-0.04542252959831407,-0.188950263369231,0.010027639920002418,-0.01623903546423596,0.22279946848706703,0.6169635203023441,0.03338990833713037,-0.09598333352739172,0.034182300521606784,0.020136997719030318,0.12424951810122296,0.8749796645809274,0.26140639814808686,0.1083640223043379,0.002994258712278682,-0.006606543684319053,-0.05765024251732259,0.05221100373298734,-0.045440983815350264,0.006527987883288211,0.025196238007690382,0.001688428479686416,0.004782825703443043,-0.002856497606126708,-0.002538786408914172,0.03607716779141854,-0.04871249133280253,0.17018043534152083,0.048424371105990405,0.16741825367657032,0.007449294453327405,-0.024900424360762494,0.005615929913646564,0.0033935048308213036,0.004712542819466591,-0.005746740410791694,0.011336266743360605,0.0047390558303398835,-0.13346675692080825,-0.0035911635471979914,0.005968275601343429,0.0004717567175664339,0.013365369822957327,-0.11996317999864345,0.032190643209331085,0.006190584985855629,-0.11735335813041944,-0.0020804804467877123,0.025360619891292832,-0.14667663788448834,0.003221326818041055,0.07749908965552799,-0.18523900581691344,-0.055486984312279775,-0.2732308971569996,0.0068995515611943005,0.022413308990773217,-0.007295868533706784,-0.0005563512191803062,0.020257973656753404,0.004709857940474868,-0.021508760453792655,0.2304522642246359,0.02678027160764763,0.11920534462120407,-0.0004273255818255847,0.020677656270692152,0.006251785061245211,0.07643108011995098
CTUN_AngBst,-0.12316867756152672,0.007416940693638109,0.004632705926021515,0.11368205225349542,0.07240588609662624,-0.12646297485541236,-0.001348084008671385,-0.013686015436100077,-0.0007913264733820575,0.09852565264782055,0.03887393362946171,-0.0927787170773122,0.005829763251169226,0.10568085013484768,1.0,0.10083836738898996,0.08792264435394706,0.05696747422765032,0.02450860205413363,-0.00768855915814348,-7.105683286891918e-05,0.09247942924343501,0.12668213736672088,-0.005134247143244502,0.10278306515289092,-0.020065518558990594,-0.019491467931251415,0.07347177582447334,-0.014555808284217157,-0.01745480377675053,-0.05387256688783192,-0.003294629712483489,-0.038453944357419355,-0.00875316553549864,0.021775877409746475,0.025194022873732673,0.08955149632598436,0.009623276942192243,-0.01631952843378723,0.014118068357589381,0.005754150556114179,0.02590924365770828,0.11979550114330038,0.18681892959745397,0.03906829533312686,-0.014683084483107645,-0.011115033014659086,-0.05111469077280376,0.016297931215831965,-0.061028613994331585,0.003912263400703317,-0.06539099284186638,0.001729131505646175,0.007192404222922227,-0.004478073506799593,-0.004922693051888752,-0.09745165947603153,0.005194172107434058,-0.013059354908944335,-0.0014915085888604325,0.003630692728691671,0.012854462284626285,-0.0047139533485185845,0.0015720096630492003,-0.0009684010714757466,0.003690143567663638,-0.0038195551808639216,0.006419296084032605,-0.006579939168659822,-0.04254671343818306,0.0010504020428702728,-0.0055592336728726805,-3.296504905122849e-05,-0.00031336401495894733,0.0002582741243457875,-0.005129612806790993,-0.006948871085794042,-0.017745961405127346,-0.008075733256060225,0.0005064389509958221,-0.03464916773418634,-0.02269969177434445,0.005377141408262196,-0.040945610419702815,-0.019886058369563277,-0.05860444397542703,-0.019433152041092364,-0.00020076692504996006,0.011166415141154991,-0.006610741727728843,-0.005609845960892577,-0.005681777850868886,-0.04458856309826138,0.07630851366826719,0.02397834219295796,-0.017884924025469866,0.004380770171771817,-0.0003547234265008093,0.0017217077615136133,-0.009163634168364437
CTUN_BarAlt,-0.060468082759090554,-0.0004325667472100597,0.0077295678911519835,0.07182167959173485,0.06410306021298971,-0.059557636552729845,0.0019441106823629318,-0.001802200059640619,0.0039877874749792794,0.9179788466144714,0.06780682690825747,-0.8199376725346833,0.013967414475487994,0.8251466473590512,0.10083836738898996,1.0,0.010251394096333308,0.6377464896882723,0.07284898462732739,0.19755147330478384,0.1120099107726149,0.20447866565389133,0.24514005723771226,0.00491739391818878,0.1909040555508602,-0.015091029757396682,-0.011005295070164626,0.2478875545745597,0.0034000243003364816,-0.03289333192543219,-0.15093077722627363,-0.008819822705663557,-0.1570249962746778,0.020974986798504475,-0.015343226932946263,0.19638015986954427,0.6079955405066885,0.038646045595500875,-0.0899416313719951,0.028211370087921968,0.001554374557860775,0.12145774265120522,0.7806504037960083,0.25607153032128266,0.08377158541760849,-0.006459441629567336,-0.025555308988882103,-0.056754803498152616,0.040491136110249216,-0.04440205265142174,0.00694936032751523,0.030659539519804577,0.00034992586214456446,0.004692220967741374,0.00037487468180960533,-0.0012051026736759618,0.016194528929797336,-0.042987996493057935,0.14042503361212189,0.01356821422777211,0.018932940694344508,0.010895715369280964,-0.02407741535439263,0.003832487852812465,-0.004157891070845239,0.0020368835184914782,-0.006116329412664808,0.0114436587276969,-0.003385845591873075,-0.12861672884698472,0.0005753517134391027,0.008265949562359456,0.010393862885466997,2.5319979430535233e-05,-0.10757959879403237,0.059134867399039885,-0.0056410393722493716,-0.12989724175421952,-0.04076570741028227,0.025049697888870376,-0.15036399751643012,-0.01423453302503834,0.07785764532178419,-0.19485354354894502,-0.054055673493647455,-0.2795209585973612,-0.009822922330214529,0.03613444002103049,0.0010408547073917104,-0.005513124846769687,0.0011150792211537723,0.0015663442534784018,-0.015881223407512194,0.20993094863053097,0.02822885641299258,0.09921210781738517,0.0013501535957817648,0.01959191572994129,0.005667259442177287,0.019118837262219874
CTUN_CRt,-0.01903379858884434,-0.0036707177205009827,0.0053202692669531435,-0.0682201170380064,-0.034845168222570944,-0.0168052622951474,-0.011308281953050694,-0.13018976044493155,0.0026369715959809604,-0.0015904180488920245,0.3869398903519976,0.0038404531163989475,0.04474005076895915,0.11129898699754871,0.08792264435394706,0.010251394096333308,1.0,0.056567152678714434,0.3738662500435603,0.037073745764446095,0.034216083523060534,0.23026214526620772,0.05837819075437404,-0.11705813777069916,0.1004433794262005,-0.14626952017807612,-0.1489625567041335,0.07680259839026614,-0.13287357629460197,-0.014715781936138728,0.05564518085742127,0.0010469387754587093,-0.02896421079959774,-0.0013705370950211602,0.0186768073102566,-0.0188673768902471,-0.01629810727685057,-0.0033605350031979324,0.055003507989480345,0.002488934117884964,0.00612621184627172,-0.060160726956398014,0.09540368860810856,0.005970713383593161,-0.03173365046322995,-0.11311709784434945,-0.08902193053937946,-0.5778634032134238,0.00571225195151205,-0.02273233939126465,-0.0009783650545547619,-0.03728846450758271,-0.0026185136829521495,0.006872046539555954,-0.0034099473501159254,-0.1131315154499383,0.04305664062532435,-0.0013067037863985454,-0.08179592576930673,-0.09078727661089386,-0.14464054164378515,-0.011073233500598533,0.00430534357600706,-0.0017678156363818054,0.0013669423910965752,-0.00564295741187322,0.0038386656693729184,0.0020266905313104395,-0.002883473864826678,-0.1470193163330102,0.0015403611908997427,0.002209678906390616,-0.014834317548982531,-0.0016937093007181338,-0.11034013630168636,-0.09559956133924452,-0.002160752716028714,0.04726602191106561,-0.02203622666279743,0.0014907204557938064,0.03409852597327047,-0.16858421966763,0.005209415081745169,0.007858555582353443,-0.002352931325372266,0.021185667493066822,-0.17612617524851717,-0.0004871998038980812,-0.0015003928159942437,0.003436145650238906,-0.0037186614045164284,-0.007173578937704556,-0.020885446240188926,0.1909278932075513,0.024502194824338432,-0.019921074630973562,-0.0009071322583968798,-0.011598247846482173,-0.0020156972534241427,0.008866271344772247
CTUN_DAlt,-0.044796357219021934,0.001375655723283207,0.014986731372878202,0.021783531548160085,0.04429787295644087,-0.04649857870841106,0.0014950962568107602,-0.0020538050542593038,0.013931630593491569,0.7198666919205251,0.015743688324293605,-0.675633885281322,-0.009823760453460227,0.7115825529513785,0.05696747422765032,0.6377464896882723,0.056567152678714434,1.0,0.10780622738747905,-0.007356602056263181,0.01280082096844656,0.19096312714776542,0.239939920407316,0.008563608814006057,0.1737940075669017,0.020397035199450908,0.00019634765203293972,0.23350507742111112,0.0018919108648251587,-0.028104418630268847,-0.1562340569427207,-0.04791962168332645,-0.15606074581697435,0.004940908930842573,-0.042615000368305345,0.22775827862835052,0.55110430561459,0.03017795686396371,-0.10199162765744649,0.030914764821367433,0.014193046128249141,0.12121976819813336,0.6577886930435783,0.1938834286449698,0.11382208135071514,0.0025320900894471353,0.0036491983379818536,-0.05115217913414007,0.05825420871513158,-0.04076309753775666,0.0011981925457024455,0.00875561549798372,-0.000603220229496735,0.0012296187541211898,-0.0031785929728262875,-0.017610195227603938,0.05458950398699662,0.0010421070114714085,0.34659563553709594,0.07449780904997706,0.1688667680504433,0.009646089029268048,-0.02479515019488749,0.0022406005412372687,0.00015663563981113516,0.003470687150196954,-0.008825973258519934,0.011802940265128301,0.0030881747562949554,-0.15208501560114024,0.000517172870018829,0.010072662262003783,-0.0015698759194270576,0.02244583053215921,-0.08486347567504907,0.05226476590364707,0.06979935758410959,-0.11678047953649237,0.01701195897761682,0.05621647117388712,-0.14819932851674866,0.011788052531611184,0.06509592422513596,-0.1974485069851327,-0.06338366339031352,-0.285108510062346,0.017422746515221164,0.04704698644213191,-0.004147697358070805,-0.007860133905810742,0.01452944029560689,0.0016732823403105394,-0.01936682842974146,0.1915802022973487,0.02159467510971069,0.32933267295863156,0.0016100488836053516,0.03150842637577348,0.005107761435570206,0.08999976671576694
CTUN_DCRt,-0.020101930505421865,-0.0055520723340669945,0.009922813644975994,0.011701483079093968,-0.006652040537353778,-0.02651139668729303,-0.010321460253495016,-0.127452377748429,0.008932854547068022,0.04877646844373176,0.21586170396872548,-0.04219270730603231,0.04058442364942554,0.07384722789517742,0.02450860205413363,0.07284898462732739,0.3738662500435603,0.10780622738747905,1.0,0.04506191196277494,0.18539341042465976,0.4549944310844847,0.20424530691596227,-0.12434605521910154,0.1648013306124534,-0.1278280411422744,-0.13315313364073633,0.19513520288688632,-0.13094498128010132,-0.02710324737818505,0.003815058662170071,,-0.1391401904738768,0.01689535315554351,-0.0029458453661937523,0.08504164477203435,0.04094743140180298,-0.0008889581307616978,0.039598283054978756,-0.003947474864657991,0.0017239248858177832,-0.04563383142051961,0.08860399599704036,0.05819758083609835,-0.04787855681140833,-0.12010596423779121,-0.09841570764020474,-0.2952958797889729,-0.007956406308262326,-0.02284450487446592,-0.003789615026710468,-0.04579423023223534,-0.0017281539208132562,-0.005960851461189115,0.0006343001564336116,-0.1337637217313256,0.01202092689412014,0.02148529811266915,0.003865651195119073,0.023389503989479497,-0.12436907949575755,-0.009211879476836307,-0.0015872452801485317,-0.0011925971817133836,0.0041260083262099415,-0.0016656268279715291,0.005544715144746696,-0.002496249915379976,0.006949885532992942,-0.12494793597858925,0.0013167495348067725,-0.0071910158130038615,-0.007330503540611081,-0.009403750542897377,-0.18995659660265363,-0.038868519963306584,1.1627151208580996e-05,0.005924531399093247,-0.031502438447774304,0.01899956361573697,0.005843367936433221,-0.11418792199502986,0.012486025724085754,-0.018105980503569357,-0.0005585268249114786,-0.024724020470368487,-0.1247581061708813,0.016725471725173247,-0.0033204063666591515,0.00500369016845219,-0.0025217226432538904,-0.005872934988480455,-0.028066694779005242,0.35017558472246224,0.04643115756326293,0.03251416118542111,0.005850396446184762,-0.0032817046171591717,0.0009837360225989867,-0.007514656297282431
CTUN_DSAlt,-6.911759808461815e-05,-0.0003232575636145136,-0.0006148309052197325,-0.02077487770099243,-0.01707134267596435,-0.00017265478057856704,-0.0030134945100834484,-0.00930033777123569,-0.00348034981106557,0.0478059311827598,0.0038837902233326183,-0.04908219253202335,-0.007066938891407807,0.1194968038707914,-0.00768855915814348,0.19755147330478384,0.037073745764446095,-0.007356602056263181,0.04506191196277494,1.0,0.3747393315819616,-0.009839055492506769,-0.027235116961493982,0.003689746625468196,0.0019941767145310197,0.050842741474862556,-0.00819955812216993,0.004235117674995416,-0.00768692236714983,-0.030080174347171532,-0.04770756770240395,,-0.0014684193182552161,0.002019371154176698,-0.0018691387352150477,-0.0038950488783363454,0.000541530472694503,0.007080749561507984,0.00900147205141279,-0.02793129001616028,-0.01811468890289629,-0.021357990332299813,0.008219701722808462,0.005250169829312478,-0.025240075212241156,0.017241711182348792,0.027457914700343082,-0.0012767534192698533,-0.033116464200490046,0.008998818878852082,0.00030064751007716645,-0.005656522962599155,0.010455143254606976,-0.0010200550308551181,-0.003870221485732753,0.008775452031792561,-0.05877419730448887,-0.0003367733258404119,0.006707134756363948,0.010917323461112844,0.08996946514371666,0.001002508452183552,0.0014262740983130566,-0.013138129241921983,-0.007072775391041093,0.009917682898840263,0.006814797487571578,-0.0027762260926244902,-0.007318606360097279,0.01361665269703469,0.018387890323017513,0.008260457380835255,-0.1528878553874241,0.06521481826711414,-0.1427031673112281,0.02427555619125114,0.00041328280486662875,-0.019553045300521862,0.0019084481923498386,0.004496490990685394,-6.879639812566957e-05,0.048903948937370205,0.0001373641720510505,-0.011139315545732806,-0.0005103813797999377,-0.0076655025178418625,0.03194636069011251,0.00511740691222868,-0.0028712272077583583,-0.055328588715454124,-0.0003291925424956789,0.00010267686451706986,0.005973022707006817,0.01679416546259213,-0.0058580142372947714,0.0076230847579744085,-0.006861699965030088,0.01000478877303175,0.0072969678575469715,-0.004340471484352571
CTUN_SAlt,0.006557630100124416,3.780331143284694e-05,0.0033557454848047864,0.012445111002980373,0.0036293063980783143,0.0029057242300630764,0.008725125368594367,0.014713468735788826,0.004800036078068995,0.07639899880652419,0.0020359808577396572,-0.07134392823695208,0.014014645652041609,0.1123818867826778,-7.105683286891918e-05,0.1120099107726149,0.034216083523060534,0.01280082096844656,0.18539341042465976,0.3747393315819616,1.0,0.035641800452082366,0.04532000940780703,-0.010313835549545956,0.021397376783313833,0.033659269194480326,0.013903589535199613,0.017817869344994686,0.013379122187478339,-0.0049435452225989615,-0.03706191809728656,,-0.008822516063197108,0.00036321975306363545,-0.012230239773158553,0.017211491567356355,0.013120102947907938,0.014915692025587849,-0.0014504691434745328,0.0018577413676004696,-0.016017562030933512,-0.0018946032253082388,0.020570612494069242,0.015871337691403965,-0.03281387897200568,0.006667166186190019,-0.001190478077346259,-0.0003940821005025677,-0.05272610039030193,0.015522869677653305,-0.005945525247736659,0.015834367341269893,-0.011147625137641904,0.0036045871451156905,0.005216699417739932,0.010803689839660145,-0.04228170154008367,-0.0002888061225213935,0.0159499259444153,0.005323490749647403,0.14419412915856067,0.008981198920409524,0.009438168995936691,0.005095854645271425,-0.00022189799804244983,0.013153861093416788,0.0030721342680841736,0.0042987988676334585,-0.0043162651651767565,0.004890461858410045,-0.006108237226205965,0.0008091138495993849,-0.15769204104405726,0.06770794170219063,0.05761998896579464,0.02164226035273555,-0.00295247151463441,-0.016362054752965732,0.003240937949715175,0.001677445454349173,-0.01383891289406467,0.02492566358071889,0.013016934555105416,-0.0006060380663202593,0.0025494928822155263,-0.010258411003477177,0.03307858343418776,0.008002441262059179,0.003648584089098273,-0.025695127847559104,0.0006831819831674709,-0.0009260554883872366,0.0057595279133299355,0.04064956721544555,-0.01810475306327231,0.021688251756958574,-0.0020351666072358997,0.012534967731236796,0.0277063751563825,0.0012020680261565725
CTUN_ThrIn,-0.05099658080077484,-0.005057803928098887,0.03278242282776718,0.09421360206492367,0.046015621773128394,-0.049104455326474186,0.001899420251725755,-0.05831991275459215,0.009891339314136858,0.2399071269185173,0.13229954808545755,-0.2213500897474334,0.014211310674220066,0.2130792075481244,0.09247942924343501,0.20447866565389133,0.23026214526620772,0.19096312714776542,0.4549944310844847,-0.009839055492506769,0.035641800452082366,1.0,0.6572877994074957,-0.05595528596365542,0.47878173680554326,-0.06667127547824839,-0.07697787111899869,0.6240845047933302,-0.06218186922293996,-0.08365959861619508,-0.26064625212013576,-0.017148304579941105,-0.47054795169525215,-0.08297084083676302,0.03660381930107547,0.3997564972476035,0.15093444948375925,0.04951211391278103,-0.03181255957763364,0.018954719564101274,0.015313878407935728,0.054023005179575014,0.2092850349002502,0.18063214632829228,0.10910758808033384,-0.058473515022901726,-0.04480223662933101,-0.22479560088714898,0.08512342008253901,-0.021945255007528912,-0.0024199585689127175,-0.07423866710981829,0.001432434180468827,0.005209310327442696,-0.004382334958092112,-0.046119366075397204,0.043147267205055774,0.020538901334429958,0.0801257254709568,-0.012728702285688108,0.009107900777705007,-0.016661366940183667,-0.012466404167157892,0.00016090398024002788,-0.002791763960286566,-0.008887352477637587,-0.0032691250001179793,0.007081088987114389,-0.005012673919906949,-0.19023221565472664,-0.007436043713125998,-0.006140575144437343,0.11348524282056069,-0.03655045995985146,-0.1571399296021572,0.04537374653497228,-0.01282994595416504,-0.08274438597185721,-0.048097415416292096,0.03918402232729988,-0.0563465195189929,-0.051884020355527485,0.030668329686816796,-0.03572182357072879,-0.004037123597487931,-0.04617418936281274,-0.06726112500148303,0.0880098399052675,-0.00882109534458508,-0.010012443256127325,-0.017117608722728862,-0.027637043023471818,-0.048523909979405866,0.9422978709210632,0.09623359554496574,0.10684870274470532,0.00033089990116643965,0.01794058958769723,0.010730685783616824,0.01732008679301776
CTUN_ThrOut,-0.042756500833071934,-0.0007964330338251386,0.028847143507001304,0.14376845804098384,0.07926554030230254,-0.047939238438993836,0.008271396202871614,0.10191432084356236,0.002065867591850982,0.2831674150762308,0.018514414294514944,-0.26252860112511345,0.008433512002714624,0.2656072867912926,0.12668213736672088,0.24514005723771226,0.05837819075437404,0.239939920407316,0.20424530691596227,-0.027235116961493982,0.04532000940780703,0.6572877994074957,1.0,0.10820496168288374,0.6408472957873496,0.09436310743174971,0.09357581707223055,0.8727110022673653,0.10142588921261354,-0.11160959110412821,-0.49439338133644517,-0.025754496805098,-0.4906738550186667,-0.012029841398061973,-0.02977061244815191,0.4950047088095579,0.18452041609824388,0.05526724156948716,-0.09436026115090208,0.01436828751267817,0.02425034000246322,0.12944453490681904,0.24703571249867357,0.19244848643671855,0.1416891058512374,0.08303322059205569,0.08505138931536814,-0.04694102730465283,0.10229306843893544,0.0021080712546004245,0.007578661922575502,-0.10335776524097842,0.004030180778573207,0.004809096816433238,-0.007214488987198858,0.08288651561008331,0.022659537453203107,-0.014106048778824758,0.17820882046495556,0.07098234058039635,0.05309892323215158,0.0001507380128985368,-0.020618611534734037,-0.003723573642440301,-0.004282611050840383,-0.002183029962476027,-0.00339637140327057,-0.0024941773113053615,-0.00046348205073290234,-0.01208239104493058,-0.004332428831941616,-0.00015355991585415648,0.11756745228672555,-0.03817541225955083,-0.09979859167199862,0.0903240133173455,-0.0211943948001969,-0.13910001246497739,-0.054649647763161426,0.04726937620110629,-0.09154333418753624,0.12421815838785612,0.04009726949447009,-0.04730687111427566,-0.013839775676324249,-0.06369172187260552,0.1213525669921797,0.11636003067831865,-0.004989520071569131,-0.009536342280696341,-0.018982186913234122,-0.027938337367609933,-0.039955902452158756,0.6510518250307742,0.0861782410963062,0.11441200639870333,0.0010442568203116274,0.01612029186462551,0.0134190941349757,0.0101870153730683
CTUN_TimeMS,0.03779294608772211,0.003922509736488478,0.0007260495745936357,0.0525692402516725,0.05793936885456791,0.051670948266587656,0.011950317365495318,0.9432386394462938,0.004260913435902635,0.0036077777011620637,-0.06757628161171803,-0.04275372709567361,-0.01666661774766851,-0.0017049818967206712,-0.005134247143244502,0.00491739391818878,-0.11705813777069916,0.008563608814006057,-0.12434605521910154,0.003689746625468196,-0.010313835549545956,-0.05595528596365542,0.10820496168288374,1.0,0.002544744473322276,0.8987219353617396,0.9212692149937075,0.10769532362290336,0.9574572017936258,0.006280225167583592,-0.5491251599012651,0.022559926577459,0.041938651118459055,-0.08630144146921238,-0.020524239967508153,0.11528001630099893,-0.03989930674778326,0.05868689137889044,-0.17018084575808176,-0.002659713613816562,0.021681795481517864,0.24995761450060217,-0.002810718142589849,-0.0018109338914752047,0.1135640925866656,0.862578725609279,0.6853921638230007,0.1524937903795853,0.06355007141963251,0.055472028326235975,0.036372364414835594,0.06018784496390098,0.007868387171623395,0.016822932524917962,0.007771315162532029,0.8954902434639097,-0.07557418605700178,-0.12144820526062476,0.2737542296344449,0.30549460838426457,0.029577816894923302,0.017581438176321466,0.030013278712598013,0.004191883419933119,-0.0015821807677710747,0.01144588788167013,0.012801150643887451,-0.0007285063327037444,-0.002529061956798179,0.848434436977914,0.016759217521526863,0.015610319416856245,-0.09496719367136364,0.0531562780939237,0.6492427117294628,0.3514118410201713,-0.0011551485161311042,-0.2799558988459312,-0.03334712004309712,-0.03718530254800341,-0.08194575620955898,0.7794106692998783,-0.03342668957681401,0.06373397966317525,0.01900199813463698,0.06445904931930768,0.7628589677210209,0.016929415830246784,0.010519253890917304,0.0028400450256499342,0.01330111599815097,0.016791838134015385,0.044726134226811376,-0.011714373396830733,-0.08413552148126063,0.05531841518381343,0.029072187756466042,0.028581361394318883,0.015300755682652423,0.010330222156847715
CURR_Curr,-0.04827042585423626,-0.00450552505236409,0.0340477509544761,0.14343447479174892,0.0999708211845324,-0.05480572363880481,-0.007376703995275488,0.005316947140360994,0.01245175349008517,0.228991947569204,0.05477535713345119,-0.21852309563202232,0.006978181651665989,0.20241806987722824,0.10278306515289092,0.1909040555508602,0.1004433794262005,0.1737940075669017,0.1648013306124534,0.0019941767145310197,0.021397376783313833,0.47878173680554326,0.6408472957873496,0.002544744473322276,1.0,0.050525813752532,0.01519894166861788,0.7216742092225591,0.005597664158587937,-0.12102428187937814,-0.4533928297151749,-0.016552406489474217,-0.34927602578404354,-0.0012485524171562074,-0.03516909690898084,0.3345338521297491,0.14065130853814606,0.03539130139144216,-0.07123308443877034,0.015054645182022713,0.011839233391685222,0.08619160320552453,0.19714896491849665,0.18157870555821978,0.11310658513179331,-0.0025782956916150764,0.00841368944000959,-0.10292555386394055,0.09148893105236355,-0.006705407480216844,0.011909685774304317,-0.09145996446038025,-0.004721047012060071,-0.00037962292691229847,-0.0014638711440604836,0.015013185854747415,-0.00436872398180128,-0.060657918301987954,0.11979609612560992,0.030100459556322772,0.15707100791724765,-0.007478771588025391,-0.024155495662829197,0.0001781985094966467,-0.009168719406389168,-0.0052526689658474865,-0.004484916805432832,0.001779610042940236,-0.003193611769479199,-0.08176423379111122,-0.011241537650349218,-0.006228666392084112,0.011874749325598562,0.01444132360571539,-0.05968832921203617,0.029445222434875448,-0.003376085895791556,-0.08029503399722596,-0.0070490814321221545,0.03464203921014173,-0.059671959120419185,0.036766519736701565,0.03069230821594422,-0.024946008255193157,-0.017188317117713427,-0.053152957818018515,0.03465720622546153,0.0691865370447842,0.0003202013752871401,0.022917882941672702,0.013397001865978912,-0.0012944361214123578,-0.05228449658754486,0.4880276038120866,0.058281099059703856,0.10869947216249408,0.0004519819336056797,0.019452240638006973,0.007865782669926893,0.03910529520035029
CURR_CurrTot,0.039235477828660076,-0.0012268671384861646,0.005373634206537239,0.06305570785141802,0.054083522115889474,0.04031603967577172,0.008426875953088223,0.897084754569575,0.025585854542372704,0.03591479074505868,-0.08499976874770916,-0.05581520294506194,-0.00233028203956673,0.013971753821944143,-0.020065518558990594,-0.015091029757396682,-0.14626952017807612,0.020397035199450908,-0.1278280411422744,0.050842741474862556,0.033659269194480326,-0.06667127547824839,0.09436310743174971,0.8987219353617396,0.050525813752532,1.0,0.9427221611000507,0.08367114143936286,0.9223318089981638,0.0018036700258313493,-0.5536244740772029,0.0073884204656222046,0.03113121871600821,-0.06085177909808105,-0.06793382378026223,0.08092331023061701,-0.05536633901549523,0.053618633710937974,-0.19027803537606253,-0.0012566108250930323,0.014294945111944695,0.25925655683415266,-0.02734568032714887,0.001971299390539897,0.3048226948155706,0.8376235416049725,0.7127729932707613,0.14921725614965659,0.08353560838304326,0.03461951077685367,0.008587335489593164,0.041759795458040906,0.0024558425123835386,0.003939592608054923,0.003479190090468871,0.84797312376239,-0.027936380560108307,-0.03973099611615351,0.28018483095904084,0.33639008186140124,0.4988148107598885,0.009213792856789813,0.028145073090854327,0.0009856690033635375,0.018016043912062556,0.009770615623806291,0.008543974785970186,0.0033271493798928166,0.003740690489512166,0.8192708274075144,0.01250920623601733,0.018639120139506807,-0.17435436972157914,0.08105325578375085,0.4053992053375052,0.3205583095580957,0.008180833184987886,-0.207114072529303,-0.0013792059333989368,-0.05095858988466802,-0.09395338123117583,0.8056947139920138,-0.04099201794839073,0.04076335612896967,0.001407635533432038,0.03190504554004066,0.8078868888367539,-0.0016970944042674371,0.0011317235846959306,0.001997438043069385,0.0209244066164003,0.02242487461489397,0.03147742472416334,-0.011445846582171256,-0.092466776953015,0.07933560088835673,0.009808547371072429,0.04077657635623581,0.013930663654103217,0.005318267309618984
CURR_ThrInt,0.04841083000286218,0.00526402950669505,-0.008983407164142686,0.06517143280943866,0.06758711989454215,0.05364431243419962,0.007000669547006914,0.9298102092028991,0.013192105556263604,-0.016739444827977217,-0.08529177857295524,-0.009271500323253247,-0.0411098318412742,0.001308208258638465,-0.019491467931251415,-0.011005295070164626,-0.1489625567041335,0.00019634765203293972,-0.13315313364073633,-0.00819955812216993,0.013903589535199613,-0.07697787111899869,0.09357581707223055,0.9212692149937075,0.01519894166861788,0.9427221611000507,1.0,0.10507713646962112,0.9577560936312374,0.013895453035862771,-0.5982011174725723,0.010446962096624192,0.05879295950033046,-0.08949606246071377,-0.029150118250229992,0.08707168085947481,-0.055415042469428764,0.057084779463809736,-0.18326112539368777,-0.0030380765288283334,0.017316207146468147,0.25904617455911777,-0.0129996325349129,-0.009853752706633799,0.09645651708619829,0.8530511247295457,0.7130872168881598,0.17219782085075008,0.05125349414945232,0.06261677925495782,0.03294355179372719,0.06502670692638139,0.011989356552952721,0.01425542416974688,0.013949589326763524,0.8706021891722487,-0.043916873374528306,-0.03722463882365709,0.28763084789594257,0.34595286177544554,-0.040747973179129704,0.018237288993976534,0.03286025660723123,0.0051107389817684964,-0.00496596070734588,0.012305523328355062,0.013519229951904502,-0.0003066677517776358,-0.006513869331948019,0.8632112324021474,0.015337188524309967,0.01695174116435902,-0.09924659341759387,0.04318167797991021,0.44568338018221787,0.3353688078513249,0.012172981656154713,-0.2818972675834287,-0.05712058072045504,-0.03590533768521861,-0.13758123726327262,0.7975302440858048,-0.03378848556512996,0.06509183908096261,0.011963710142959619,0.06512809145910517,0.7869202603642367,0.01515641065193306,0.0027282061371375938,0.012650523129644943,0.02179948978124609,0.024067899580791408,0.050400277086688754,-0.03072446699680089,-0.09777083912376168,0.05996965114357171,0.02946924707356973,0.03360877092705008,0.012280050066690943,0.010624890972742933
CURR_ThrOut,-0.04447872409502338,-0.0027733414504935265,0.027369276892434853,0.15390346105092506,0.07205233084833434,-0.05365335030814631,0.0035608479494769925,0.10426000655955125,0.005313811500960277,0.2945502913522199,0.05322181046690655,-0.26439691448091696,0.018602126146969752,0.26137254707856833,0.07347177582447334,0.2478875545745597,0.07680259839026614,0.23350507742111112,0.19513520288688632,0.004235117674995416,0.017817869344994686,0.6240845047933302,0.8727110022673653,0.10769532362290336,0.7216742092225591,0.08367114143936286,0.10507713646962112,1.0,0.10966086108586649,-0.10455991109184072,-0.5397441059267234,-0.022188745968819094,-0.5359040989103798,-0.008031343016438588,-0.03183474004778619,0.5057273260933507,0.18401306194599723,0.056610329757273974,-0.09671412871674578,0.021653296495025096,0.028167606732009253,0.13294047313510798,0.25355475090662677,0.20337131579724485,0.13699435223498027,0.0883497768304595,0.09833119214938318,-0.0713033622710369,0.12571346412192347,-0.010300052893553794,0.003448063262791868,-0.05431754112759004,0.0030153039464233546,0.0042598133258954065,-0.0004934525414520453,0.08206626663893564,0.03472953589466638,0.005686644018768781,0.19027388459278238,0.0908603235045331,-0.021206806041059272,0.0011424719541142422,-0.024359096892806523,0.005481220938121599,-0.0008004878904670814,0.003081043947835028,-0.008053575419338335,0.000675168686762909,0.006677634833574286,-0.00216481364337319,0.0009479866429654114,-7.95676051414488e-05,0.1578574688637295,-0.0773414984715635,-0.10917404838038994,0.09841451805708486,-0.01968336521529819,-0.17955776581148997,-0.08122502799157884,0.05264718357204038,-0.08874854350714553,0.11560793297838061,0.04079241253990029,-0.036956866348601576,-0.014406248863474922,-0.05085280118498177,0.10694829787585267,0.14005489383764919,-0.005540908343181002,-0.01432980411960463,-0.026333616061484585,-0.02947052918523947,-0.05127120563244748,0.6265732565873645,0.09699535229532268,0.10635434316693979,0.0030762217877133647,0.01691307274121487,0.006632550390830765,-0.014123615696274777
CURR_TimeMS,0.03799322581728829,0.006087870956016904,0.002192550868069463,0.057096556747864784,0.06020665588673811,0.05455379675078248,0.011721258622689386,0.9643953469097216,0.007913135019394578,0.0025565927362307104,-0.06996451400939535,-0.03512175872072722,0.028657355392063683,0.0040813337469992874,-0.014555808284217157,0.0034000243003364816,-0.13287357629460197,0.0018919108648251587,-0.13094498128010132,-0.00768692236714983,0.013379122187478339,-0.06218186922293996,0.10142588921261354,0.9574572017936258,0.005597664158587937,0.9223318089981638,0.9577560936312374,0.10966086108586649,1.0,0.009465514884679739,-0.5618775621076221,0.02251072526778787,0.042368133407177176,-0.09399946441750738,-0.022396816079625813,0.10399750771054553,-0.043788355387123,0.06051918735500678,-0.1785014739795811,0.00026878285181350674,0.019268099964991164,0.25864332357105724,-0.002404794049531951,-0.006572060376223535,0.11406280446760568,0.8746413604854579,0.7026574098581375,0.15820032101237108,0.05692400979680491,0.0566853975388078,0.033633880500854425,0.06377190196165416,0.00846224041561825,0.014156070955615996,0.010978049233980491,0.8961851907081086,-0.07843415051199003,-0.09568390524328255,0.28038353837208724,0.31117065058732124,0.0581925810676207,0.0212299843934348,0.03112494699014108,0.009138811601294664,-0.0036350232009576483,0.016607631071964654,0.011670161893472794,0.002947856067392032,-0.005085245761942149,0.8679778679483366,0.015606182279521203,0.016812699440061696,-0.07268601505231946,0.04361437627652147,0.6424979312971524,0.3589878153594887,0.01041908651594528,-0.28943657908876125,-0.03195664293548131,-0.03983605029331424,-0.07817156366843094,0.793891077090584,-0.03407389293753949,0.0674180149017592,0.0196518887898857,0.06813400186660257,0.7803509010168378,0.012884873907930132,0.005883496080146211,0.004734793907430901,0.015166261815097191,0.017907281070005023,0.04848369384527374,-0.021166917109805297,-0.08634671086060715,0.05514629719486739,0.029604718080731996,0.030061971919320724,0.012814532290080095,0.011426579441728856
CURR_Vcc,0.005079874699512594,0.0030505340080823912,-0.0012683197601867566,-0.026194783904708377,-0.018831353545650194,0.00784997821609914,-0.00011212344802636253,0.010283079618233298,-0.0010266686626776078,-0.035601032645305994,-0.010754617659501212,0.04030381289820745,-0.01159574403249503,-0.03540007367824744,-0.01745480377675053,-0.03289333192543219,-0.014715781936138728,-0.028104418630268847,-0.02710324737818505,-0.030080174347171532,-0.0049435452225989615,-0.08365959861619508,-0.11160959110412821,0.006280225167583592,-0.12102428187937814,0.0018036700258313493,0.013895453035862771,-0.10455991109184072,0.009465514884679739,1.0,0.10185052386447288,0.0008350877640062366,0.06510857950033364,-0.004489218905565348,0.0012157667694690294,-0.06646316724389416,-0.027374679280060297,-0.007586828181449928,0.0013879557428536223,-0.003046476279211431,0.0025132143187950374,-0.004026977517083049,-0.026436384287867296,-0.03152250304943613,-0.027185900873747906,0.013118379873949454,0.007322835332769887,0.021074397584780875,-0.019169358213792252,-0.0007975199507742379,-0.003031396870436682,0.017313898942876695,0.0007013508802472156,0.0008690482906791497,0.0026505380713790837,0.005547189870274565,-0.0007604025585659014,0.0013137639316248258,-0.011676110827554395,-0.0038390539899077103,-0.00996275473259992,0.0067292632430538115,0.0038209569089555453,-0.0010246766232556318,0.006469740937160312,0.006822707899478663,-0.0024072401645643966,-0.0025782651992776293,0.008558619859952748,0.011191332063880703,-0.0021362118106303995,-0.001764210341609447,-0.018774294911131514,0.009853164065225902,0.007020437796687618,0.008059649417090142,-0.00048137701873913585,0.004285101919799828,-0.0012059383326815869,-0.009174267667560717,0.016669921202100615,-0.0014874456041439974,-0.007102915396965478,0.012464923459918764,-0.0002848842152852191,0.0061025586975962075,-0.0034831480871252954,-0.0318642170385361,3.0382947104984288e-05,-0.008054634811669329,-0.002733468738040475,0.0053742519735870365,0.011605785356747209,-0.10283154093968987,-0.01559484664016541,-0.01855199774236949,-0.000174291312096541,-0.0038094069291686756,-0.0036115707647050087,-0.002035218038558639
CURR_Volt,-0.00022422688720394326,-0.0008798402135177538,0.0028676622550411696,-0.13326037643876146,-0.08881508324491498,0.007183606847412675,-0.0022030348138952186,-0.5472309714182926,0.002918484132271764,-0.20205387681463965,0.03492203192105602,0.2015684687652407,0.028495557363508527,-0.18103702442026334,-0.05387256688783192,-0.15093077722627363,0.05564518085742127,-0.1562340569427207,0.003815058662170071,-0.04770756770240395,-0.03706191809728656,-0.26064625212013576,-0.49439338133644517,-0.5491251599012651,-0.4533928297151749,-0.5536244740772029,-0.5982011174725723,-0.5397441059267234,-0.5618775621076221,0.10185052386447288,1.0,-0.0006518446434706816,0.20382505233188308,0.017769307941914673,0.08206595507950498,-0.27113640539495126,-0.0908149888835252,-0.052115851415612646,0.18791705622457383,0.0004920548397428002,-0.01778845750274572,-0.2418352269445911,-0.15142701912091194,-0.12922517503791467,-0.2263053915577823,-0.5152313206256495,-0.4558132435562331,-0.060637411336487264,-0.05477792166737271,-0.019780344443785507,-0.01626327063973596,0.015114512186927734,-0.0032703346892125227,-0.004846484058389077,-0.00516772623251393,-0.5228464115871542,0.007616668293742103,0.01118885287442376,-0.27202488107352224,-0.28028060609497957,-0.3816802393793559,-0.016000543739820253,-0.00785449286127631,0.005710582091088541,0.002269152226460807,-0.008428871807187406,-0.00837298435832122,0.0035607826584313747,-0.003987139929068096,-0.4881142670179498,-0.004605890044424664,-0.013825584176440826,0.09002073002161969,-0.06293868608563512,-0.08399281441229946,-0.18290730746541528,-0.0014549176131217745,0.2140397389468711,0.013862570321812146,0.005887915910127044,0.11494870113767612,-0.5496582472984255,-0.004105619861599869,-0.003769977994451177,0.009415652900990506,0.016069557633398183,-0.5449634746429602,-0.06114102193111093,0.006004313261868859,-0.0011711874539386314,-0.009897575994688287,-0.0016738589676635637,0.016909294097228057,-0.33071827568781587,0.010744932808285965,-0.12354220386093459,0.0024431758943370924,-0.034632293541166266,-0.020658837840463056,-0.01590919708188858
DU32_Id,0.004722574700625975,-0.00276830624402286,-0.04047560512994133,0.008569721704485089,0.02621722827768457,0.006637720542672905,-0.0066573897290624255,0.015015330631856536,-0.00274433199937625,,,,,-0.04542252959831407,-0.003294629712483489,-0.008819822705663557,0.0010469387754587093,-0.04791962168332645,,,,-0.017148304579941105,-0.025754496805098,0.022559926577459,-0.016552406489474217,0.0073884204656222046,0.010446962096624192,-0.022188745968819094,0.02251072526778787,0.0008350877640062366,-0.0006518446434706816,1.0,0.6667456802264914,-0.0018498820152317663,-0.18289992573465064,0.004425643531018956,-0.009208572023081424,0.004092775555089566,0.000281547399772428,-0.00443955068801918,-0.0013036525378011424,-0.002394093453579217,-0.008765469269278705,-0.006937969203653488,-0.0010412690174084205,0.011368326586073708,0.011385862570439186,-0.0009084000700110777,-3.9528090596472536e-05,0.006402347865344676,0.005844337018939602,-0.009274222900057567,0.004806621917539649,-0.008700964913898856,0.0020121205603929357,-0.0005985819885261391,-0.0013965627192476285,,0.011013016237847107,0.006028195619801451,,0.005825821763042293,0.0294982298649022,-0.01681174859205989,0.01684097092527976,-4.974549233005738e-06,0.00046020866237943904,-0.01685652834757185,0.016910742694868627,0.01883041866158924,0.00791706491413557,-0.0014189120208868472,-0.00710716763193934,0.007368268816470412,,-0.07330367471041101,-0.00023244783595624023,-0.003280117220136792,-0.0018638206951795372,-0.0034289439186219258,-0.004933028682437285,,-0.005697745209404134,0.029975975139136742,0.00862360264702248,0.021426511867326154,,0.0020518265162300466,,,,,,,,,,,,
DU32_Value,0.021911647119704,0.002117744669402989,-0.012072766861770732,-0.0943004440386408,-0.03737998665291553,0.024775530904254613,-0.003933653365727447,0.04407211701035699,0.002918530518936721,-0.1967087941970651,-0.01612102165378558,0.18173259650428508,-0.010933369272263037,-0.188950263369231,-0.038453944357419355,-0.1570249962746778,-0.02896421079959774,-0.15606074581697435,-0.1391401904738768,-0.0014684193182552161,-0.008822516063197108,-0.47054795169525215,-0.4906738550186667,0.041938651118459055,-0.34927602578404354,0.03113121871600821,0.05879295950033046,-0.5359040989103798,0.042368133407177176,0.06510857950033364,0.20382505233188308,0.6667456802264914,1.0,0.048438235350341155,-0.01821164714253895,-0.398440955358374,-0.12151179968229073,-0.023853483109863953,0.04214037605541657,-0.016477592080456873,-0.010002901053788668,-0.05209027120106344,-0.15541326578636486,-0.11383759382957712,-0.07276068613702331,0.056265909785472364,0.017512662131588762,0.03259871999568854,-0.09517340311743024,0.010894578294330553,0.004892622061403764,0.027674906552734385,0.002374764144815357,0.0016547241444213438,0.0031158828681580237,0.05542267583430923,-0.033171197472377775,-0.054391553372094434,-0.061970981995302814,-0.011161620393610143,-0.21140300980352447,-0.0013440010351712134,0.01766996744195329,0.001243539862243991,0.0034415315257539285,-0.0025460907677355774,0.0026791966203997286,0.0029659634555728484,-0.0015481876753112214,0.11611823090486227,0.0037399193310683624,0.0003792436157737066,-0.1301116775898929,0.021792794397470092,0.15036421553107893,0.015516364481499251,-0.018785339253198616,0.02824285806180717,0.005425774830835304,-0.03363618167532801,0.035311811025742997,0.011389760558815002,-0.02947150836208148,0.024076024214330936,0.008567377161017685,0.04098007245009851,0.014587600368548753,-0.09113958588389733,0.0067954250994110435,0.014403024326428794,0.02288257298826273,0.03340451483551451,0.03801078826928506,-0.5025470516069261,-0.06594106299882996,-0.10827728670542264,0.002884093306300158,-0.004178262874213836,0.0017069766313713788,-0.00584225656630792
ERR_ECode,0.0038870172060658215,0.00566098437915038,-0.009830027822348245,0.034316676768231476,0.100769909104777,-0.005525372944094536,0.004540494291644178,-0.09016767390998738,-0.0028754038884171787,0.014862599185978658,0.013335493871638156,-0.016674576001116704,0.006863579099497483,0.010027639920002418,-0.00875316553549864,0.020974986798504475,-0.0013705370950211602,0.004940908930842573,0.01689535315554351,0.002019371154176698,0.00036321975306363545,-0.08297084083676302,-0.012029841398061973,-0.08630144146921238,-0.0012485524171562074,-0.06085177909808105,-0.08949606246071377,-0.008031343016438588,-0.09399946441750738,-0.004489218905565348,0.017769307941914673,-0.0018498820152317663,0.048438235350341155,1.0,-0.022629847194866624,-0.008146122189106013,-0.0103419616542859,-0.01668145261317459,0.008169406598658674,-0.05483969359958783,-0.037830066427069015,-0.10014185993501315,0.01938716110807986,0.0368158866363191,-0.3782055096397432,-0.07881966592578318,-0.1259715115025719,-0.012367241970468186,-0.2602484512023572,0.006761416316739561,-0.0018307280467971328,0.01377366536682182,-0.00422205394663956,-0.003237846093501775,-0.0074488010658901715,-0.09341104795442072,-0.006074965673155035,0.029978703121056608,0.004291430480951851,-0.015636771235922154,-0.17050399261433186,-0.008193664855302813,-0.023623696698613313,-0.0207971045934762,0.004266339475378517,0.0018633373276178335,-0.028852011848917482,-0.019546702602705225,0.007032323538640511,-0.042673519455420486,0.011416382757701939,-0.0003758105124738082,0.022022944986193702,-0.012282461496597029,-0.035554126965256075,-0.17265230950791985,0.03130573035767591,0.04552955367977561,0.008385681289657075,0.0210332210333642,0.012240375059266612,-0.05954477374327102,0.0015011393968619804,-0.02959560129232103,-0.010853856589928448,-0.028666921234521796,-0.06168424919481703,-0.012595529790617458,0.000231972929979226,0.019691393961342455,-0.005594364628960914,-0.002589057741993313,-0.011674694596062175,-0.05045513840779688,0.005932680672391494,-0.008047691470594276,0.00037962678684821504,0.0044452718789224415,-0.002494341854478801,0.014957208710916077
ERR_Subsys,0.0020126552363563073,-0.006435636168589724,0.003934284174887214,0.012106664725408679,0.03831178681413019,0.0074869030289539135,0.0018109025416493617,-0.01048787310244702,0.009129132977063185,-0.01836100117669047,0.018755717394538688,0.0025889490037563677,0.041833893143270066,-0.01623903546423596,0.021775877409746475,-0.015343226932946263,0.0186768073102566,-0.042615000368305345,-0.0029458453661937523,-0.0018691387352150477,-0.012230239773158553,0.03660381930107547,-0.02977061244815191,-0.020524239967508153,-0.03516909690898084,-0.06793382378026223,-0.029150118250229992,-0.03183474004778619,-0.022396816079625813,0.0012157667694690294,0.08206595507950498,-0.18289992573465064,-0.01821164714253895,-0.022629847194866624,1.0,-0.015008086018796973,-0.033199855283388896,-0.007561379631963984,-0.02269442949611524,-0.05263657297825109,-0.0219779617669488,-0.054028355272020885,-0.009203522765933305,0.030052173752852,-0.14938299145943965,-0.01973609333965177,-0.06615660974621224,-0.02630499538582916,-0.17882623655990865,0.005690298957898875,-0.0088303354440255,0.004692035242931538,0.0024328003200446593,0.0006879825734807615,-0.0007489333173117113,-0.009680477310688246,-0.007915472744692016,0.11017333447554674,-0.07853129197496084,-0.04671279410639586,-0.06293446424409299,-0.022882461735941054,0.0008362465481129491,-0.029964970798563903,-0.009880650279401538,-0.00895712279035375,-0.011075383170082734,-0.0359083081536676,-0.0074154723397725445,-0.02198406511659681,0.0034931249216578713,-0.006479876845059952,0.01868736521878692,-0.023327923312132855,0.029351748298353762,-0.01728342245243811,0.04910291388484541,-0.00678731912522408,-0.013923081506197185,0.010229756788770595,0.054044523346974904,-0.03414187229900257,0.0010432297587486849,0.03601650312123076,0.038241854773615865,0.05894177313829583,-0.04015371642547795,-0.012199272786093915,0.013220100427764489,0.011119396902386195,0.011561188211645618,0.024774710054507487,-0.02299028054469703,0.034668390129923975,0.004207935032048987,-0.04427370300223545,-0.026110408561942806,-0.005896653805158216,-0.006729060224964067,0.011133375891843818
EV_Id,-0.028960042803753125,-0.002104892066502587,0.01173324960492494,0.12076650906422404,0.09072381961229158,-0.02166126446825242,0.003353965421132958,0.1115144769973903,0.011113356381691912,0.26602153537413065,0.006242804652440489,-0.24414229693121917,0.008403459965034464,0.22279946848706703,0.025194022873732673,0.19638015986954427,-0.0188673768902471,0.22775827862835052,0.08504164477203435,-0.0038950488783363454,0.017211491567356355,0.3997564972476035,0.4950047088095579,0.11528001630099893,0.3345338521297491,0.08092331023061701,0.08707168085947481,0.5057273260933507,0.10399750771054553,-0.06646316724389416,-0.27113640539495126,0.004425643531018956,-0.398440955358374,-0.008146122189106013,-0.015008086018796973,1.0,0.17097186619941926,0.05514728717276662,-0.08531730242391397,0.02165374883626393,0.022339852195608266,0.11707845950383981,0.19128206901240782,0.14113055671737518,0.1467374022588238,0.0865170650701298,0.11529283182093954,-0.01139988197443222,0.16708517195492584,-0.009237361761982654,0.00899853841122599,0.012376152818676954,0.002944588204838146,0.003411024685715754,0.0007767863374108984,0.09770616729297361,0.0220451676588496,0.02529216009712524,0.19474059510123973,0.07683124707671017,0.3470210422261047,0.0018727720436544399,-0.013415685391667535,0.012415731300708457,-0.0009948592143163393,-0.003959664759508303,0.0018172160257724146,0.00764735581052461,0.0031789151093523657,-0.05636301459231764,-0.0016072054790048037,0.00016110998745988062,0.15775954323581518,-0.0329318433054382,-0.12400120770730844,0.08539995193291178,0.029157492488815728,-0.10585979313541723,-0.0002180334622545928,0.04403629278049492,-0.06983646494418791,0.08057384984838804,0.029233403841178195,-0.05337105242140205,-0.018192495598820142,-0.07565334704182652,0.07475364492680521,0.10775423647700826,-0.0016921299023209687,0.003548435756277972,-0.00013038666792458217,0.001763784415655137,-0.02896377025972791,0.385919278462818,-0.03610042273557366,0.12878941678681838,-0.010504221289882468,0.025733608792651633,0.020797540754861014,0.048786761383956274
GPS_Alt,-0.05515070167080395,0.003559338766977903,0.010319999304073756,0.052089812343330655,0.060216690293094136,-0.056291976408878085,0.0034782474669790985,-0.04348440454805358,0.009876791962816125,0.6312804836677236,0.019070200218186787,-0.6016237195901869,-0.013715067137166194,0.6169635203023441,0.08955149632598436,0.6079955405066885,-0.01629810727685057,0.55110430561459,0.04094743140180298,0.000541530472694503,0.013120102947907938,0.15093444948375925,0.18452041609824388,-0.03989930674778326,0.14065130853814606,-0.05536633901549523,-0.055415042469428764,0.18401306194599723,-0.043788355387123,-0.027374679280060297,-0.0908149888835252,-0.009208572023081424,-0.12151179968229073,-0.0103419616542859,-0.033199855283388896,0.17097186619941926,1.0,0.03131364526501829,-0.07787789262057661,0.10050284393569543,0.06794480103337822,0.13878343850257668,0.6710486502921357,0.24255981498131657,0.2930470468488235,-0.04217048358292683,-0.0025188083412327135,-0.07318968171764419,0.3343307473108657,-0.04277336769580249,0.0033113705198764202,0.023209417496418427,0.002686718887927333,0.004013574186416115,0.00015297082112853563,-0.06421652898424796,0.0367249757562936,-0.01002881803270012,0.11883973621614774,-0.002458395814458634,0.09239080439234708,-0.0023274955677532673,-0.026122514554117997,0.009253408385348858,-0.006178074645341378,-0.0041752629294200035,-0.006328912644533283,0.017055714459743115,-0.003895187101164514,-0.13745253761006254,-0.0032573278530756396,-0.008425605626736407,0.011872214280831532,0.0041797960111710905,-0.15678547322841244,0.024500132528338683,-0.002724805671098073,-0.09423128410869001,-0.015556761061442905,0.019479410208667357,-0.12815303355143126,-0.04271441041611504,0.06446664634350706,-0.1785347321149891,-0.05241173076957308,-0.2705883404474497,-0.0362635563338362,0.011742672554661935,-0.0035800580655053833,0.0013405572486261024,0.007404200108885545,0.0005851137120342899,-0.029393628822917548,0.1368774823889685,0.02233065370362431,0.08202103577676974,0.004939478275544806,0.010437822660414323,0.01102906910313328,0.060094585169419366
GPS_GCrs,-0.006003982930850154,0.00827988364207536,0.10967914917950364,0.03052612832179484,0.023984370407886427,-0.004028976906915052,0.007408517141988698,0.05946336935857643,0.13105083498299075,0.04299065475472534,-0.0010567548354533936,-0.03184314484326134,0.008689791283777577,0.03338990833713037,0.009623276942192243,0.038646045595500875,-0.0033605350031979324,0.03017795686396371,-0.0008889581307616978,0.007080749561507984,0.014915692025587849,0.04951211391278103,0.05526724156948716,0.05868689137889044,0.03539130139144216,0.053618633710937974,0.057084779463809736,0.056610329757273974,0.06051918735500678,-0.007586828181449928,-0.052115851415612646,0.004092775555089566,-0.023853483109863953,-0.01668145261317459,-0.007561379631963984,0.05514728717276662,0.03131364526501829,1.0,-0.01791850501533894,0.03806565417804716,-0.010449284002806068,0.044834664125351364,0.029574883662554008,0.05456350763803943,0.14165221801197117,0.05618253597378916,0.07632320145317464,0.001806337763779457,0.19018664115711467,0.004141054130257097,0.00041374808023732733,0.012161955755647238,0.001987858527022413,-0.0034088074266483016,0.001193861055143461,0.060022353210322114,0.008129060638947637,0.009782785495721308,0.03468568812396837,0.02058983360926728,0.014249157954294437,0.0032029661480514394,-0.011741845447864387,0.0010795067455987135,0.0034865754983041575,0.0006396922786641922,-0.15961869479056803,0.004429609257770394,-0.012977361278054458,0.005027254240742576,-0.003014474467407463,-0.25430719177090966,-0.014535744504734997,0.010513094067370292,-0.03317677842573637,0.0629931375376091,0.0034734230307245095,-0.04448611163952569,-0.006573880334511736,-0.0012489649227321797,-0.03506284337039985,0.04737511877280488,0.0010846884323270252,-0.0008581261041790642,0.0038718166320944243,-0.0015338581346056378,0.04249975653441219,0.012184604857124963,0.004325939526837918,-0.00532305773484422,-0.007803108917518615,0.0024880983540083,0.003568367432209414,0.04586522177829338,-0.01412220370089743,0.022869909429363195,0.0011480011637442027,0.004425143340665552,0.006029307070306347,0.004650215182565632
GPS_HDop,0.0012062362041543348,0.0029639813442860993,-0.005195843518411074,-0.010962723999071455,-0.010900316000161848,0.001956617822072809,0.007181107033455274,-0.17155578518101797,-0.002341091739608386,-0.10633903486710711,0.03721184914890462,0.09042459950211557,0.018988259196700965,-0.09598333352739172,-0.01631952843378723,-0.0899416313719951,0.055003507989480345,-0.10199162765744649,0.039598283054978756,0.00900147205141279,-0.0014504691434745328,-0.03181255957763364,-0.09436026115090208,-0.17018084575808176,-0.07123308443877034,-0.19027803537606253,-0.18326112539368777,-0.09671412871674578,-0.1785014739795811,0.0013879557428536223,0.18791705622457383,0.000281547399772428,0.04214037605541657,0.008169406598658674,-0.02269442949611524,-0.08531730242391397,-0.07787789262057661,-0.01791850501533894,1.0,0.006310780404035684,0.007096874845976201,-0.751575385446958,-0.0967522269811791,-0.044979908951710654,-0.2542911610794873,-0.15569909089751122,-0.17115593275154276,-0.05634943022663059,-0.07092129135060374,-0.0047621375102159655,-0.0072842283412736745,-0.001225433728087036,-0.00017868421975537625,-6.735116073871127e-05,-0.004621061189047992,-0.16044217108840533,-0.02766441597976802,0.0148306157090877,-0.11042600308955322,-0.08223159902261465,-0.167431655349026,-0.0017428152981634273,0.004229510784035148,-0.014073250472853563,0.002111482024419033,-0.0007038171248499608,-0.00482622106090354,-0.007882544709693422,0.0018395270961731535,-0.1284254282935728,0.0022506134131410065,-0.012488167113286418,0.027846382791687788,-0.023123138996560683,-0.07302734339769204,-0.07737877032595299,-0.004513335347871358,0.09003727133527277,0.0005671247135665677,0.008637707137061804,0.05039091730960629,-0.1701209780463262,-0.010068676797631584,0.016469957028309692,0.0007002599822233103,0.04079012439063397,-0.18685866603705029,-0.017118101398525754,0.00011847351982165079,0.0024338467182145676,0.010992016622435671,0.017772391636547993,-0.0012936106351170173,-0.043591346970896144,0.015279076226759922,-0.05084810000882336,0.004846216733795301,-0.02283947514346382,-0.011045245061401466,-0.0006869897111076605
GPS_Lat,0.0012953327100412835,0.011487517199620613,0.006990376108389103,0.015021996049921604,0.01330314881809998,0.0009875162878835414,0.0036972169925638737,0.0013758447033062776,0.007565283882356392,0.03869350044301992,0.0031067720690495814,-0.038815084536837054,0.019137182073042276,0.034182300521606784,0.014118068357589381,0.028211370087921968,0.002488934117884964,0.030914764821367433,-0.003947474864657991,-0.02793129001616028,0.0018577413676004696,0.018954719564101274,0.01436828751267817,-0.002659713613816562,0.015054645182022713,-0.0012566108250930323,-0.0030380765288283334,0.021653296495025096,0.00026878285181350674,-0.003046476279211431,0.0004920548397428002,-0.00443955068801918,-0.016477592080456873,-0.05483969359958783,-0.05263657297825109,0.02165374883626393,0.10050284393569543,0.03806565417804716,0.006310780404035684,1.0,0.09159180981265704,0.06407506774593738,0.022427342185046672,0.027116269261477293,0.3576201854630953,-0.01115658600333342,0.07740224730900928,-0.007413980815453017,0.506372384814859,-0.0057107867112676115,-0.00038561165185454203,-0.006742615036007623,0.0018603985869923045,7.264830648177813e-05,0.0022169083249401617,0.002721987472807903,0.0985187196450094,-0.025572985992924863,0.009727570265866027,-0.010093605413808682,0.028761779776255453,-0.10856889545811911,-0.008455422118574104,0.5172198027214673,0.020389979350336554,-0.09655043650433251,-0.005933265077913811,0.5995047546254788,0.030047087604013954,-0.01938297011272842,-0.030972280612633924,-0.003633284126109563,-0.0005543333827001776,0.009514503628750308,-0.0008844038336863361,-0.04111544490516281,0.0020083292068545896,-0.020021384873599786,-0.004272554648836269,0.004394738669392525,0.0035553933035280118,-0.011119772765197168,-0.00148876188068162,-0.014733191156456252,0.008657432843583187,-0.02182241516938631,-0.021370533733790782,0.006996385241702719,0.009870389479990922,-0.006496558025367495,0.003184795108269858,0.008061492069730907,0.015343659815670133,0.010108053431019481,0.010991018173575444,0.0029633085898822928,-0.009389563160237731,0.00427066746977676,0.0011545609886192063,0.026418791301681517
GPS_Lng,0.01582278101344381,-0.004136238097612274,0.030749716108075812,0.006148880012704445,0.009417273898437528,0.019032388716212725,-0.0008802305296433787,0.02455401127826858,0.03183756589267172,0.023633176151242333,0.004399857560814796,-0.012285760352496723,0.012224714379770433,0.020136997719030318,0.005754150556114179,0.001554374557860775,0.00612621184627172,0.014193046128249141,0.0017239248858177832,-0.01811468890289629,-0.016017562030933512,0.015313878407935728,0.02425034000246322,0.021681795481517864,0.011839233391685222,0.014294945111944695,0.017316207146468147,0.028167606732009253,0.019268099964991164,0.0025132143187950374,-0.01778845750274572,-0.0013036525378011424,-0.010002901053788668,-0.037830066427069015,-0.0219779617669488,0.022339852195608266,0.06794480103337822,-0.010449284002806068,0.007096874845976201,0.09159180981265704,1.0,0.06064743956715227,0.008851973509301012,0.0051959521844430305,0.3513398045801897,0.016609026249547687,0.09934291559008808,0.00639045927312704,0.44990881483217066,0.016759726565569264,0.007469515449922893,-0.0018655513666502855,0.0050932637566972715,0.0008766867242901492,0.006571614909372688,0.033989877740946035,0.017644670270733662,0.04229959228846186,0.028009887551991474,0.02214565936844839,0.045199883845007824,-0.017893766904684864,-0.09692114957541575,0.02268697016258363,0.4950226216513609,-0.010938441445921118,-0.08638436578428385,0.02727073264522352,0.5794767219936721,0.0028269071198549255,0.005752588326882731,-0.029185313550325998,-0.0017449259826523371,0.008578457202253129,0.005593841344864623,-0.045077269210414155,-7.288043455743507e-05,-0.01077716694120292,-0.004211244503266067,-0.002263649135825284,0.0051613489172560876,0.002084287356522604,0.010073830928326493,-0.0036609333195031083,-0.005851195650239924,-0.022616917748719715,-0.006093170651048636,0.004229874374817003,-0.003674498487213381,0.0007734924522413067,0.0001994247861197653,0.0038789857783697672,0.014137303437875849,0.03450062743182892,-0.0027465121210513044,0.007879173371634867,-0.004402368626760435,0.0063406553010128186,-0.01562801442482259,-0.011058895271350271
GPS_NSats,-0.0002643224008202785,-0.005605560340279325,0.00571474222602866,0.010869506102605448,0.0147254868955719,0.0009766107992389176,-0.002929703334071757,0.2531970465245118,0.00501224866850878,0.13208102392953763,-0.044631887552816794,-0.12035433105673687,-0.01541029686897732,0.12424951810122296,0.02590924365770828,0.12145774265120522,-0.060160726956398014,0.12121976819813336,-0.04563383142051961,-0.021357990332299813,-0.0018946032253082388,0.054023005179575014,0.12944453490681904,0.24995761450060217,0.08619160320552453,0.25925655683415266,0.25904617455911777,0.13294047313510798,0.25864332357105724,-0.004026977517083049,-0.2418352269445911,-0.002394093453579217,-0.05209027120106344,-0.10014185993501315,-0.054028355272020885,0.11707845950383981,0.13878343850257668,0.044834664125351364,-0.751575385446958,0.06407506774593738,0.06064743956715227,1.0,0.1279949257470728,0.06834142721065492,0.5637945519899281,0.2456084739207282,0.28879953810022146,0.06451841877614477,0.49404288350494086,0.010034717869090954,0.008815707480599606,0.0029174631634213267,0.0016444350364930747,0.0016482342754452427,0.006661645939587979,0.2663718123720813,0.03293591034843253,-0.042630158783792435,0.13759981645179342,0.10653540323571122,0.19600362268321164,0.004976430819385363,9.482369140426221e-05,0.0022036094700083643,0.003475018185783466,0.00342320129899923,0.006056606641239797,0.001263749543781496,0.01041750864141039,0.150216370473966,0.0016697130544289502,0.012904039471672988,-0.03846473336946908,0.030435964877484404,0.058930029696599474,0.10102763578157387,0.0012287475498047378,-0.12051147308214981,-0.003773662689738161,-0.010777506671384518,-0.04934906772682345,0.19889182988389456,0.008427412905649419,-0.011204630124364123,0.008819524499299554,-0.03746824181643373,0.21555759754972975,0.030065962857938243,0.001685233021617001,0.00391027822392029,-0.006075824802177154,-0.00473359653213631,0.0014042805135359888,0.059516385961798944,-0.013071592095669448,0.06294733384682402,-0.0026771591994871552,0.02442998463276248,0.011590629868088804,0.010703350677683432
GPS_RelAlt,-0.05916938333133747,0.0016079043119913996,0.00809043660502706,0.06522813032945694,0.05552060107804919,-0.062021901797276124,-0.0011167472603801324,-0.007442786960829662,0.0028920191294369503,0.8450078635638216,0.007094594268689437,-0.7229838877095556,0.01095131433123008,0.8749796645809274,0.11979550114330038,0.7806504037960083,0.09540368860810856,0.6577886930435783,0.08860399599704036,0.008219701722808462,0.020570612494069242,0.2092850349002502,0.24703571249867357,-0.002810718142589849,0.19714896491849665,-0.02734568032714887,-0.0129996325349129,0.25355475090662677,-0.002404794049531951,-0.026436384287867296,-0.15142701912091194,-0.008765469269278705,-0.15541326578636486,0.01938716110807986,-0.009203522765933305,0.19128206901240782,0.6710486502921357,0.029574883662554008,-0.0967522269811791,0.022427342185046672,0.008851973509301012,0.1279949257470728,1.0,0.272947599472266,0.09009773647097734,-0.0017300144423162925,-0.023120213039749607,-0.0510563841410797,0.05152767384020023,-0.04654193541681687,0.009642731220155036,0.02257527307072287,4.741565280433986e-05,0.006420057745324212,-0.0036616213314565895,-0.012566951595006533,0.006844321229196097,-0.01403130609064943,0.14649354049834723,0.01828674655068735,0.003995786877082715,0.0073058292079784546,-0.027407287710087904,0.011517826718804178,-0.0033260595010662286,0.0065534366366802885,-0.01157758583431076,0.010740387701663953,-0.00040277535474950914,-0.13518305744036196,-0.0004494242337963603,0.003580138360416578,0.03867492990021538,-0.010994934087759606,-0.11885021771716739,0.03394526730086358,-0.0063539059702733,-0.16352226265885866,-0.06667608158894746,0.02130127961650435,-0.16965450866041462,-0.028808395865232553,0.07788280188198898,-0.20014966090998124,-0.06251183026278448,-0.28552657567247575,-0.030307146815252168,0.03984852569658173,-0.007397870635470241,-0.007202919979988765,-0.005228297147396867,-0.004215211779260289,-0.018697284384012327,0.20765458819844423,0.03690198675429977,0.0913892842222769,0.009152671911169414,0.020592943292083474,0.003568165282256848,-0.010324656777777037
GPS_Spd,-0.161706373535542,-0.002594788959147258,0.005999641953459563,0.2453281790676539,0.17835391582451354,-0.14902336293602478,-0.007435228341845544,-0.006001537398288519,0.004393310419359372,0.2935771780906509,0.022577638117124956,-0.2710152811208882,-0.0025641078363826293,0.26140639814808686,0.18681892959745397,0.25607153032128266,0.005970713383593161,0.1938834286449698,0.05819758083609835,0.005250169829312478,0.015871337691403965,0.18063214632829228,0.19244848643671855,-0.0018109338914752047,0.18157870555821978,0.001971299390539897,-0.009853752706633799,0.20337131579724485,-0.006572060376223535,-0.03152250304943613,-0.12922517503791467,-0.006937969203653488,-0.11383759382957712,0.0368158866363191,0.030052173752852,0.14113055671737518,0.24255981498131657,0.05456350763803943,-0.044979908951710654,0.027116269261477293,0.0051959521844430305,0.06834142721065492,0.272947599472266,1.0,0.10246025678130609,0.04191536024549742,0.0038728586912309395,-0.015902796975420044,0.14517982688831624,-0.13594275317838267,0.013400426302008927,0.013455450546715288,0.0009280041476648845,0.03606491451102503,-0.0006828754155905429,-0.010772837368677407,-0.05115085681507767,-0.013487910288581586,0.03950374648316215,-0.0028505878908842764,0.09961592763763735,-0.007999195700220223,-0.00974091160857712,0.003753466679714475,-0.008291275777045675,-0.0021235962781910546,-0.0030097372082593284,0.004416692221093461,-0.007694305579800904,-0.056348099756648375,-0.005025586230135235,-0.0033836016398782094,-0.01193461082321413,0.01120600221277749,-0.0006111033435321855,0.04117361283034352,-0.005305226560660585,-0.059726340325467114,0.00470332676751626,0.008505120732088783,-0.08920834093086956,-0.0025521017072290255,0.019907177918798317,-0.11240226876079089,-0.03199496220085833,-0.15884483456700013,0.0002648498102504108,0.006283536381832973,-0.010370839796106352,0.002149439228344914,0.009047637286448423,0.0026055383107974907,-0.11583588293916067,0.18207544418716484,-0.0024081901711209296,0.016800814119964282,-0.006266877926168047,0.010004655753865058,0.004157794503351562,0.034971889339053826
GPS_Status,-0.006171088357853221,-0.005331659067849035,0.023040876753447917,0.010562420376288344,0.02070080474914084,0.0002511254929451993,0.004638582211352974,0.11759064698654609,0.026912392195508523,0.11026703093761167,-0.040111232041785974,-0.08523723130183723,0.005602268135291965,0.1083640223043379,0.03906829533312686,0.08377158541760849,-0.03173365046322995,0.11382208135071514,-0.04787855681140833,-0.025240075212241156,-0.03281387897200568,0.10910758808033384,0.1416891058512374,0.1135640925866656,0.11310658513179331,0.3048226948155706,0.09645651708619829,0.13699435223498027,0.11406280446760568,-0.027185900873747906,-0.2263053915577823,-0.0010412690174084205,-0.07276068613702331,-0.3782055096397432,-0.14938299145943965,0.1467374022588238,0.2930470468488235,0.14165221801197117,-0.2542911610794873,0.3576201854630953,0.3513398045801897,0.5637945519899281,0.09009773647097734,0.10246025678130609,1.0,0.11409675434505062,0.6991773552371445,0.03827426466008049,0.8990380201671907,0.0021081988322933527,0.008384196982472275,-0.008803966749586795,0.003629682370916257,-0.0001236773427121561,0.0012223355583052369,0.09627190296522598,0.05071728629815011,-0.005684541229473925,0.12543919201755271,0.011503842042211953,0.24933856486583977,-0.018334546381194864,0.006719843847210355,-0.044554934398542675,-0.020623329293536677,0.002307437894135546,-0.0032401416862911595,-0.04696683791920311,-0.006017575708980755,-0.07590772757618408,0.012107052722071389,-0.017942878844949713,-0.09905279622265745,0.06048107268502162,-0.19895607104443072,-0.00761196988647294,0.00020509348797548063,-0.08556717724199626,0.045388111591350574,-0.02231220308024119,0.008199859412594775,0.19983413726992125,0.00019865255403956526,0.013019771146462833,0.030878753478020365,0.002237300299395479,0.22461399886397648,0.027305255043854063,0.00124536609793524,0.01789994502543292,0.0056032617334717425,-0.0023327987583700812,-0.007005525764499632,0.09561455001071517,-0.0168145897095998,0.07495489875822482,0.0008034558616894205,0.030278840809030906,0.04676572408195255,-0.036358422342213266
GPS_T,0.038422649556076036,0.0051893320809200455,-0.001249833164857896,0.04951498400633254,0.05775090333497652,0.04748397137659505,0.0064630139983064185,0.8615678939967252,0.011357193284767421,-0.0009451117029910706,-0.06544622949394614,-0.030677986969326318,0.010324852033538239,0.002994258712278682,-0.014683084483107645,-0.006459441629567336,-0.11311709784434945,0.0025320900894471353,-0.12010596423779121,0.017241711182348792,0.006667166186190019,-0.058473515022901726,0.08303322059205569,0.862578725609279,-0.0025782956916150764,0.8376235416049725,0.8530511247295457,0.0883497768304595,0.8746413604854579,0.013118379873949454,-0.5152313206256495,0.011368326586073708,0.056265909785472364,-0.07881966592578318,-0.01973609333965177,0.0865170650701298,-0.04217048358292683,0.05618253597378916,-0.15569909089751122,-0.01115658600333342,0.016609026249547687,0.2456084739207282,-0.0017300144423162925,0.04191536024549742,0.11409675434505062,1.0,0.6712914112343776,0.15487210204528257,0.11048628047194987,0.056573616136151764,0.034793877447656885,0.06083555530896778,0.008318295004357911,0.015501115744967368,0.01102365016255974,0.8542940313039918,-0.06336181020641442,-0.09896814689618942,0.26326705823253876,0.2788416476331575,0.08710474302757809,0.02183975947219238,0.024873664013704336,0.01118941235190563,0.0004438058391955905,0.016696414601976645,0.011669787759996508,0.010393430559953077,0.00020818797616695,0.7755629944231524,0.01790994332413519,0.017748453364041843,-0.12778589211392505,0.053356396636042705,0.48389027192499573,0.32538385641625195,0.009980911626353346,-0.25402089263011246,-0.045175350518060944,-0.035793604573107665,-0.08797845782015157,0.7187766728996435,-0.02922467837218611,0.054354103279574385,0.021023481365710407,0.06260179337774675,0.7026285936377493,0.019575503212133097,0.0033959443583806478,0.004043591292617184,0.01443491241708202,0.017761016681409007,0.041357470956106354,-0.02327360720077816,-0.08021872690351135,0.046855073643345,0.02486635080249939,0.018587902387864636,0.011786541357268976,0.009305131855266179
GPS_TimeMS,0.03530480770108245,0.008444495566353887,-0.004678189844692205,0.03210468096852167,0.03335158251253767,0.03849981073535316,0.008367187640250351,0.6863838271896197,0.00374555334457626,-0.024632332506436004,-0.05422644464326068,-0.0031110509256976554,-0.011243422497718635,-0.006606543684319053,-0.011115033014659086,-0.025555308988882103,-0.08902193053937946,0.0036491983379818536,-0.09841570764020474,0.027457914700343082,-0.001190478077346259,-0.04480223662933101,0.08505138931536814,0.6853921638230007,0.00841368944000959,0.7127729932707613,0.7130872168881598,0.09833119214938318,0.7026574098581375,0.007322835332769887,-0.4558132435562331,0.011385862570439186,0.017512662131588762,-0.1259715115025719,-0.06615660974621224,0.11529283182093954,-0.0025188083412327135,0.07632320145317464,-0.17115593275154276,0.07740224730900928,0.09934291559008808,0.28879953810022146,-0.023120213039749607,0.0038728586912309395,0.6991773552371445,0.6712914112343776,1.0,0.12150914519899723,0.5246257150913063,0.050601789724627144,0.024988363857395276,0.04128061505197407,0.004771003360342145,0.006742338551431924,0.006239726383185002,0.6639569356293991,-0.015773304070270944,0.05668754836459999,0.24400522812463105,0.23159512211381234,0.10756127208323243,0.022962105499016554,0.03350074349803552,0.004263798173679417,-0.003511724446238223,0.0142803645682475,0.014022311935042898,0.0036311826181569147,-0.0010117662555226474,0.661524961269316,0.0164262295192183,0.013507959737955023,-0.06342606334979066,0.026268672230276492,0.2511753133196625,0.27451293961623835,0.0099933748251756,-0.20874519602159466,-0.042614048412995466,-0.03019649611853432,-0.0650736770573885,0.572947759246537,-0.011154493192734448,0.03454864817751371,0.0028810128211837938,0.053056896212013184,0.5616098865969664,0.02480001089254812,0.011526872392221705,-0.018355138556467396,-0.00843589984263209,-0.012506040462713641,0.03648083181780494,-0.006422222106571124,-0.05803016736123847,0.043502763095082504,0.011484827266059839,0.018431602783764465,0.015408918625374657,0.00998251295879695
GPS_VZ,0.021447616492132587,0.0060648305257841465,-0.00714919328861764,0.03196628775659328,0.014145010002657476,0.017803214531350607,0.01018592125369562,0.152397870203681,-0.006551140293415616,-0.046529820067991286,-0.46386047144486925,0.04083776689952402,-0.03627010033308829,-0.05765024251732259,-0.05111469077280376,-0.056754803498152616,-0.5778634032134238,-0.05115217913414007,-0.2952958797889729,-0.0012767534192698533,-0.0003940821005025677,-0.22479560088714898,-0.04694102730465283,0.1524937903795853,-0.10292555386394055,0.14921725614965659,0.17219782085075008,-0.0713033622710369,0.15820032101237108,0.021074397584780875,-0.060637411336487264,-0.0009084000700110777,0.03259871999568854,-0.012367241970468186,-0.02630499538582916,-0.01139988197443222,-0.07318968171764419,0.001806337763779457,-0.05634943022663059,-0.007413980815453017,0.00639045927312704,0.06451841877614477,-0.0510563841410797,-0.015902796975420044,0.03827426466008049,0.15487210204528257,0.12150914519899723,1.0,0.013784165404813914,0.0127308203220785,0.0010047394300324037,-0.04212247686504994,0.0009113212655619355,0.0031752872379962145,0.0034295187162458316,0.13376643475653288,-0.013127763453215565,0.006427072330895421,0.07693979628472125,0.08342618558261107,0.12095586727351314,0.017988895172205727,0.005907153479395185,0.0033083526369261933,-0.00631658798515653,0.01343454607269514,0.0031149412091863796,-0.0004323715404633287,-0.0031687083469678252,0.15649853157911317,0.0043569348063128305,-0.003726470197777186,-0.010202244994037655,0.010028600666006056,0.06601896563196369,0.025147763947599305,-1.977973525086677e-05,-0.05587538754413536,0.008202675563652161,-0.007143712519205126,-0.03919134100401744,0.17631692996627737,-0.0018491113785959919,-0.001453201313647245,0.0014158588471971756,-0.0046360399815128135,0.18357150985334036,-0.0016911146885494372,0.001360525007384295,-0.002780715556765624,0.002575028982798546,0.0032202458786371297,0.029986624613027896,-0.16073985252873732,-0.009737500242716753,0.02176171962605842,0.006306144319671058,0.012791532312741043,0.008138199513547032,-0.002022788621054462
GPS_Week,-0.007661057708769606,0.008588852463044751,0.03339753759270258,0.01387232098203021,0.014429754561786001,0.0032231701059919834,0.017191772581443842,0.06675357259582934,0.03308914085787809,0.06563978357442843,-0.0009284825047599214,-0.024058537829470934,0.0637614633260107,0.05221100373298734,0.016297931215831965,0.040491136110249216,0.00571225195151205,0.05825420871513158,-0.007956406308262326,-0.033116464200490046,-0.05272610039030193,0.08512342008253901,0.10229306843893544,0.06355007141963251,0.09148893105236355,0.08353560838304326,0.05125349414945232,0.12571346412192347,0.05692400979680491,-0.019169358213792252,-0.05477792166737271,-3.9528090596472536e-05,-0.09517340311743024,-0.2602484512023572,-0.17882623655990865,0.16708517195492584,0.3343307473108657,0.19018664115711467,-0.07092129135060374,0.506372384814859,0.44990881483217066,0.49404288350494086,0.05152767384020023,0.14517982688831624,0.8990380201671907,0.11048628047194987,0.5246257150913063,0.013784165404813914,1.0,0.01739612349126923,-0.004576866391043685,-0.015923331679396305,0.01630880595347936,0.001821402796179438,-0.003767120809104705,0.031960375986640394,0.14489703923601305,-0.019721726015954733,0.06001187817020623,-0.026793857062698816,0.10205174375728698,-0.008135911239033553,0.044340069507053013,-0.005783350708083892,-0.012607404623950548,-0.022060521674200702,0.018726399481905832,-0.01967354459670205,-0.011306698458145342,-0.09007413342878547,-0.003229370836745629,-0.02090296104790064,0.017141059485486634,0.017214918392865125,-0.1793357521600266,0.039648562930906704,-0.000769262285251913,-0.0797734513653361,-0.032256938235649416,0.0009473021448448451,-0.007712568469550891,-0.04233044170775426,0.0030791822961082045,0.008066878253753703,-0.030953076192595578,-0.021028494668584655,-0.06419176940354442,0.04536905179527341,0.02341707812915708,-0.002115659885160882,-0.0017307595675076044,-0.029100894180954615,-0.00452071619758794,0.0911054317277868,0.0016227746412045628,0.034149335659306966,0.008244530518871251,0.051234873216722626,0.04138484544012325,-0.05488631152614215
IMU_AccX,0.26219270379678355,0.002596365371233662,-0.011042990055669192,-0.019795888416298903,-0.02136479354526867,0.34686387309805156,0.005444085376289778,0.056245281744599904,-0.016487273762890005,-0.043267917783069064,-0.01084925210215448,0.03872443154132014,0.01110969746737516,-0.045440983815350264,-0.061028613994331585,-0.04440205265142174,-0.02273233939126465,-0.04076309753775666,-0.02284450487446592,0.008998818878852082,0.015522869677653305,-0.021945255007528912,0.0021080712546004245,0.055472028326235975,-0.006705407480216844,0.03461951077685367,0.06261677925495782,-0.010300052893553794,0.0566853975388078,-0.0007975199507742379,-0.019780344443785507,0.006402347865344676,0.010894578294330553,0.006761416316739561,0.005690298957898875,-0.009237361761982654,-0.04277336769580249,0.004141054130257097,-0.0047621375102159655,-0.0057107867112676115,0.016759726565569264,0.010034717869090954,-0.04654193541681687,-0.13594275317838267,0.0021081988322933527,0.056573616136151764,0.050601789724627144,0.0127308203220785,0.01739612349126923,1.0,0.03000372802267763,0.0301251866656745,0.003175080655416682,-0.035605590457549685,0.011856740522926052,0.05413490843816987,0.01720002322077949,0.0017216014209514797,0.028780265228391777,0.021593301603724895,0.0275296464297312,0.00432464689774691,0.006418973675235173,-0.0014680609035575849,0.0012573069641471143,-0.002340861358165063,0.007564050573111136,0.0007628796215636058,0.007699015630517488,0.03899481305112032,0.0020188499139911363,0.014038546337420804,-0.0069722409507858,0.00504779070664062,0.04765400487656952,0.024249799914617082,0.0007614288380105867,-0.003837845746868849,-0.009745611658546257,-0.0005734493670300989,0.009205168185082449,0.025908771768598543,-0.010287117931072313,0.028128462159425917,0.012243479887652672,0.02924136770369486,0.0287552428902559,0.0066106672639538976,-0.002999174637807718,-0.02613926663940521,0.012141089885264694,-0.007267713778937416,0.10773043327487429,-0.013991091769702358,-0.00467635060274112,0.0044765436252227385,0.0022366100198871215,0.005075589791282111,-0.0021254804530982277,-0.018413594171612147
IMU_AccY,-0.001587451376982124,-0.14322112997091133,-0.002009117354274924,0.010355081160632268,0.004138980951272464,0.003985921256465007,-0.22696583203423967,0.036467780371402914,-0.0027474517425527876,0.008585691664012433,0.0003226828563029714,-0.006644693027357866,-0.003982728351372828,0.006527987883288211,0.003912263400703317,0.00694936032751523,-0.0009783650545547619,0.0011981925457024455,-0.003789615026710468,0.00030064751007716645,-0.005945525247736659,-0.0024199585689127175,0.007578661922575502,0.036372364414835594,0.011909685774304317,0.008587335489593164,0.03294355179372719,0.003448063262791868,0.033633880500854425,-0.003031396870436682,-0.01626327063973596,0.005844337018939602,0.004892622061403764,-0.0018307280467971328,-0.0088303354440255,0.00899853841122599,0.0033113705198764202,0.00041374808023732733,-0.0072842283412736745,-0.00038561165185454203,0.007469515449922893,0.008815707480599606,0.009642731220155036,0.013400426302008927,0.008384196982472275,0.034793877447656885,0.024988363857395276,0.0010047394300324037,-0.004576866391043685,0.03000372802267763,1.0,0.03426826367242624,0.03455807500763071,0.002194815838625958,0.045672106564875664,0.02850333731700244,-0.005835030638925303,-0.0008615948008144868,0.018191100365574763,0.015598082932827858,0.03684354387141698,0.004020359295109786,-0.0026022582749300857,0.0070306988621096364,-0.006386764327311264,0.014961623925486625,0.003651215005427988,0.0060233114737367425,-0.0056962172008137016,0.018376071234727103,0.026523886600733463,0.00800647057685979,0.004674985015371921,0.004281581085711535,0.017722288740995767,0.026021560916998927,0.0065017672569882504,-0.012489005047803377,0.0013820302597593959,-0.0042353495422142,-0.011623802899498043,0.016408754158115976,0.002470646004832392,-0.0030946263098278973,-0.010940306921121072,-0.006877018177901493,0.009001170346740353,9.46358175352364e-05,-0.03098406343011208,-0.014579773946092145,-0.01657827964119089,0.0028624584465587804,-0.0011808503772316656,0.003995988984715183,0.018565660477223963,0.0006450332658278181,-0.00042693292295028915,-0.0008895272841241451,0.0009052804696813364,-0.004844210660813527
IMU_AccZ,-0.0028939593413485768,0.0040143721959558735,-0.0029479333956511544,0.02863572865844042,0.03454160838352581,-0.005771583439269061,0.0003119783030484264,0.061169763767214114,0.002364513517653464,0.03696839228632783,0.047083967698498014,-0.0346343528177031,-0.0049754283118245155,0.025196238007690382,-0.06539099284186638,0.030659539519804577,-0.03728846450758271,0.00875561549798372,-0.04579423023223534,-0.005656522962599155,0.015834367341269893,-0.07423866710981829,-0.10335776524097842,0.06018784496390098,-0.09145996446038025,0.041759795458040906,0.06502670692638139,-0.05431754112759004,0.06377190196165416,0.017313898942876695,0.015114512186927734,-0.009274222900057567,0.027674906552734385,0.01377366536682182,0.004692035242931538,0.012376152818676954,0.023209417496418427,0.012161955755647238,-0.001225433728087036,-0.006742615036007623,-0.0018655513666502855,0.0029174631634213267,0.02257527307072287,0.013455450546715288,-0.008803966749586795,0.06083555530896778,0.04128061505197407,-0.04212247686504994,-0.015923331679396305,0.0301251866656745,0.03426826367242624,1.0,0.0118983224027211,0.0029702010238578653,0.023264626965947277,0.08156166127798055,-0.06644082504527349,-0.009100809330217619,0.03158636424010417,0.018386211412164982,0.04823223568228981,-0.008376278509162097,-0.004631441489377092,-0.00018407144977263353,-0.0023270694303768485,-0.00601935676663789,-0.0037375932279953184,0.001366853527792478,0.00024493488371984707,0.04910538527998282,0.0013558015050062861,-5.383821280107251e-05,-0.026447040852081227,0.01638074410858081,0.06530700373285468,0.034825186958873385,0.018086426877814376,-0.018483773068859174,0.0034542424562160863,-0.003824076692874977,-0.020120439888814637,0.04285563154581507,0.00172943335307736,-0.009580603963752486,-0.01092597336221051,-0.011100547677110325,0.041188088004990506,-0.004763911297051506,0.0008874632744950326,-0.011065300709579269,-0.01067386311648221,0.003621328814377737,0.0012576821001229791,-0.07689530573446118,-0.033467092325663535,0.0070562401836983535,-0.0023571179939224944,0.000631626869944568,0.0013831888364675942,-0.009374609934859737
IMU_GyrX,0.00035920277390198203,0.12803132073598805,0.004273125150245211,-0.0016673206976689928,-0.0019206276442543938,0.003565403399288805,-0.01635128165935572,0.005117003995175976,0.0014439777417714428,-0.0002698061261104647,-0.003371174028913107,-0.0018300876252314695,0.0016860020521481862,0.001688428479686416,0.001729131505646175,0.00034992586214456446,-0.0026185136829521495,-0.000603220229496735,-0.0017281539208132562,0.010455143254606976,-0.011147625137641904,0.001432434180468827,0.004030180778573207,0.007868387171623395,-0.004721047012060071,0.0024558425123835386,0.011989356552952721,0.0030153039464233546,0.00846224041561825,0.0007013508802472156,-0.0032703346892125227,0.004806621917539649,0.002374764144815357,-0.00422205394663956,0.0024328003200446593,0.002944588204838146,0.002686718887927333,0.001987858527022413,-0.00017868421975537625,0.0018603985869923045,0.0050932637566972715,0.0016444350364930747,4.741565280433986e-05,0.0009280041476648845,0.003629682370916257,0.008318295004357911,0.004771003360342145,0.0009113212655619355,0.01630880595347936,0.003175080655416682,0.03455807500763071,0.0118983224027211,1.0,-0.0030324813628407788,0.05521933112055559,0.01943001364874669,0.002168175944746566,0.0010696669885509572,0.00403914781918803,0.0025901485605572716,0.012609697508551891,-0.005761519759489836,0.003606199314870094,0.0028314163489329062,0.0006472970166524849,0.002084828613541908,-0.0027653088196723935,0.0054387550085136915,0.0012440237893787433,0.0018033355741623198,0.007097330160934376,-0.004986734306693044,-0.003892663953751718,0.0021846420783119304,0.00020956993032625912,0.010220849842410338,-0.0003809301822381459,-0.0021506190370965653,0.00041532509830974416,0.000514849476515969,-0.0011313725717514126,0.002856638885312631,-0.001599078196463471,0.0026719577593146823,0.0022816178378771367,0.0017883299618494037,0.0031726987523182557,-0.002635984136114655,0.14154669484598922,-0.0005132940677511757,0.006729632801465167,0.00496790018907375,-0.004799237515984734,0.0018361389371370131,0.016111054216406497,0.0010957230972400021,0.0029681813412348623,0.0017635771075597236,0.007317182334847181,0.0025618229666895037
IMU_GyrY,0.09192058219979066,-0.0017605184015439363,-0.0020871196441449905,0.012603775900397919,0.009107887846598654,-0.022337051822935727,0.004292182345864084,0.014571574325000225,-0.0011331428953514331,0.003376935722239477,0.004649306977503993,-0.0061025062334005295,-0.0024999323368615307,0.004782825703443043,0.007192404222922227,0.004692220967741374,0.006872046539555954,0.0012296187541211898,-0.005960851461189115,-0.0010200550308551181,0.0036045871451156905,0.005209310327442696,0.004809096816433238,0.016822932524917962,-0.00037962292691229847,0.003939592608054923,0.01425542416974688,0.0042598133258954065,0.014156070955615996,0.0008690482906791497,-0.004846484058389077,-0.008700964913898856,0.0016547241444213438,-0.003237846093501775,0.0006879825734807615,0.003411024685715754,0.004013574186416115,-0.0034088074266483016,-6.735116073871127e-05,7.264830648177813e-05,0.0008766867242901492,0.0016482342754452427,0.006420057745324212,0.03606491451102503,-0.0001236773427121561,0.015501115744967368,0.006742338551431924,0.0031752872379962145,0.001821402796179438,-0.035605590457549685,0.002194815838625958,0.0029702010238578653,-0.0030324813628407788,1.0,0.03255034361070862,0.02210217216700949,-0.011631137350335522,-0.0031415329566423424,0.004336189688129822,-0.00010085036580571521,0.012135484774468233,-0.0013545797197946539,-0.009603458664852396,-8.727820799981373e-05,-0.0012130806667700331,0.002060031736112186,-0.003260510684884406,0.0007813110343580684,0.0009472063585034458,0.00994441937704668,0.005151687724543469,0.00444507533715144,0.0056332037971358615,0.0011766656721178884,0.024451889774684397,0.0011703054653579505,-0.0013493976013866887,-0.0048398226696595836,0.001226499228638655,0.0008744255378604035,0.001132134041383301,0.0024297240047301836,-0.0007666949440494955,-0.00011544227916011889,0.0013796239166069782,-0.0005719429217565317,0.00259311900860135,-0.0023375523714183086,-0.005227902616605762,0.005170091077885945,-0.007216742773795293,-0.0030823818771295477,0.09001642124661197,0.0060966316218370635,-0.002630979239415404,0.00104065391243869,0.004498572756192712,-0.0017900269442952708,6.789447906486435e-05,0.003587560845454479
IMU_GyrZ,-0.002446749647372555,0.0497069528200364,0.040844440056872384,0.0014652415086523274,0.0019515309299610187,-0.005887379083250394,0.05682424526757985,0.01057083964594341,0.0016533786192122722,-1.0456432413182974e-05,-0.0019433007671571822,-0.0010069062219978367,0.005832231956692758,-0.002856497606126708,-0.004478073506799593,0.00037487468180960533,-0.0034099473501159254,-0.0031785929728262875,0.0006343001564336116,-0.003870221485732753,0.005216699417739932,-0.004382334958092112,-0.007214488987198858,0.007771315162532029,-0.0014638711440604836,0.003479190090468871,0.013949589326763524,-0.0004934525414520453,0.010978049233980491,0.0026505380713790837,-0.00516772623251393,0.0020121205603929357,0.0031158828681580237,-0.0074488010658901715,-0.0007489333173117113,0.0007767863374108984,0.00015297082112853563,0.001193861055143461,-0.004621061189047992,0.0022169083249401617,0.006571614909372688,0.006661645939587979,-0.0036616213314565895,-0.0006828754155905429,0.0012223355583052369,0.01102365016255974,0.006239726383185002,0.0034295187162458316,-0.003767120809104705,0.011856740522926052,0.045672106564875664,0.023264626965947277,0.05521933112055559,0.03255034361070862,1.0,0.023354396968721974,-0.01269334331432338,0.016141735591893577,0.00525285157100763,0.0032052241314204084,0.012526643640413164,-0.014257266602261327,0.00027551872641035384,-0.0018327456873582888,0.008257071321065046,-0.005917613020625417,0.003676413586776392,0.0018093743975781367,0.007883427784472907,0.007270229174736827,0.00438670528623568,0.00370699962410536,0.0018748778495083019,0.005443127248147889,0.0031521195070611458,0.005127553806861917,0.002341489513472261,-0.004652268486306502,-0.0021460584238778965,-0.0012928186159670697,-0.002924727201929355,0.009329729638255721,-0.0050321700523112585,0.0009825233496778666,-0.001463328971335212,0.002120453250319953,0.004680559332578512,-0.00022228192911450106,0.029403348905823707,0.003174558792197185,-0.005447733901170593,0.004432938100499623,0.005759542295669487,-0.0065696747074734515,0.20810504803742594,-0.004606071810686236,0.0027001507518745515,-0.005039110766657616,-0.002017789104196336,0.00608612395455668
IMU_TimeMS,0.036506128715145074,0.0025540956194621163,0.00047030144118864937,0.0452131119819066,0.05366526546921507,0.05270298911861644,-0.0005375887219098051,0.8927422778165396,0.012263364751015448,-0.0026587144531763436,-0.06733078897899965,-0.03229183851151263,0.018207059013563225,-0.002538786408914172,-0.004922693051888752,-0.0012051026736759618,-0.1131315154499383,-0.017610195227603938,-0.1337637217313256,0.008775452031792561,0.010803689839660145,-0.046119366075397204,0.08288651561008331,0.8954902434639097,0.015013185854747415,0.84797312376239,0.8706021891722487,0.08206626663893564,0.8961851907081086,0.005547189870274565,-0.5228464115871542,-0.0005985819885261391,0.05542267583430923,-0.09341104795442072,-0.009680477310688246,0.09770616729297361,-0.06421652898424796,0.060022353210322114,-0.16044217108840533,0.002721987472807903,0.033989877740946035,0.2663718123720813,-0.012566951595006533,-0.010772837368677407,0.09627190296522598,0.8542940313039918,0.6639569356293991,0.13376643475653288,0.031960375986640394,0.05413490843816987,0.02850333731700244,0.08156166127798055,0.01943001364874669,0.02210217216700949,0.023354396968721974,1.0,-0.06095922864252605,-0.09648331084833772,0.2890845327594257,0.2738476038243881,0.0924411927387153,0.018889329714823152,0.012709018359280119,0.0013447855985037939,0.016131943607887913,-0.00488331691364193,0.00851156476075917,-0.0008647612422888449,0.003904837421378925,0.8004191111538067,0.002561571499448794,0.03132128969986029,-0.08704004474825926,0.03642230785319258,0.5546815273265553,0.35253270722951846,0.009682861823926383,-0.2572559242123625,-0.040007260651465454,-0.044485316812288504,-0.07957351671058488,0.710134898307458,-0.018142782850071162,0.058406596067246686,0.012496632267685711,0.05042483327223315,0.7117691760161946,0.01664905407818124,0.015163202716231726,0.0015812537557139425,0.017126182443314302,0.016172169886548984,0.028275420150144885,-0.014463285055832767,-0.08317606982046204,0.018759311046844376,0.02188264298123708,0.03263284385197386,0.017520586956213356,0.0036789137803711126
