,ATT_DesPitch,ATT_DesRoll,ATT_DesYaw,ATT_ErrRP,ATT_ErrYaw,ATT_Pitch,ATT_Roll,ATT_TimeMS,ATT_Yaw,BARO_Alt,BARO_CRt,BARO_Press,BARO_Temp,CTUN_Alt,CTUN_AngBst,CTUN_BarAlt,CTUN_CRt,CTUN_DAlt,CTUN_DCRt,CTUN_DSAlt,CTUN_SAlt,CTUN_ThrIn,CTUN_ThrOut,CTUN_TimeMS,CURR_Curr,CURR_CurrTot,CURR_ThrInt,CURR_ThrOut,CURR_TimeMS,CURR_Vcc,CURR_Volt,DU32_Id,DU32_Value,ERR_ECode,ERR_Subsys,EV_Id,GPS_Alt,GPS_GCrs,GPS_HDop,GPS_Lat,GPS_Lng,GPS_NSats,GPS_RelAlt,GPS_Spd,GPS_Status,GPS_T,GPS_TimeMS,GPS_VZ,GPS_Week,IMU_AccX,IMU_AccY,IMU_AccZ,IMU_GyrX,IMU_GyrY,IMU_GyrZ,IMU_TimeMS,MAG_MagZ,MAG_OfsX,MODE_Mode,MODE_ThrCrs,MSG_Message,NTUN_DAccX,NTUN_DAccY,NTUN_DPosX,NTUN_DPosY,NTUN_DVelX,NTUN_DVelY,NTUN_PosX,NTUN_PosY,NTUN_TimeMS,NTUN_VelX,NTUN_VelY,PARM_Name,PARM_Value,PM_I2CErr,PM_INAVErr,PM_INSErr,PM_MaxT,PM_NLon,PM_NLoop,PM_PMT,RAD_Fixed,RAD_Noise,RAD_RSSI,RAD_RemNoise,RAD_RemRSSI,RAD_RxErrors,RAD_TxBuf,RCIN_C1,RCIN_C10,RCIN_C11,RCIN_C12,RCIN_C2,RCIN_C3,RCIN_C4,RCIN_C5,RCIN_C6,RCIN_C7,RCIN_C8,RCIN_C9
ATT_DesPitch,1.0,-0.05040381552939949,-0.24399100423782177,0.07871266948740731,0.002628921359986745,0.58126700888365,-0.05333573916939728,0.022224227028105916,-0.1280783925048509,-0.1635958250749977,0.09909698273094988,0.1645303284644364,0.0637322365911185,-0.008138995845222107,0.005082153879324883,-0.013649073119833321,0.044360486926001225,-0.06914257204787776,0.048268844757695877,0.0805187202217862,0.030904682574362866,-0.005867950363742766,0.08904848515288809,0.022280135325090145,-0.014045384447696782,0.040325540706034425,-0.01661429432281305,-0.07124139572701887,0.022620640347499877,0.02112986946200021,-0.04698192995983301,,0.025197239292113278,0.16137919757992383,0.03393754327110882,-0.0326413061623282,-0.18280689254353383,0.009310383858892159,0.03572942303524249,0.009341562727106865,0.08948932199904755,-0.048526386273218924,-0.11479365822209948,-0.2744997020898726,-0.03667810652611309,0.022302546997163244,0.02100951536824633,-0.08143973765401599,-0.017169923122952173,0.28568815259831,-0.032799373725530226,0.06260510626271994,-0.005776129986491073,0.08582633943118526,-0.034705311079063536,0.022232550242371783,-0.08881179319624713,-0.0011525245693412775,0.012541907955885325,-0.0579883246438444,0.10406603358680293,-0.044350054833546676,-0.46972609232460844,0.21422214913894555,-0.02343310700489597,-0.1174172513909318,0.09284328902067165,0.2501874908853115,-0.10434931693139396,-0.18658515127516037,-0.03711975622651917,0.1769352657651481,0.01461704509477305,-0.0014167787432426658,,,,-0.01907995447335173,-0.20483296530617712,-0.06530756557113801,-0.11044435092342764,0.11479042426589198,-0.01588301704381701,0.058013784727020234,-0.14892524704283777,-0.029913258098653098,0.09379806173314176,-0.0328947615639217,-0.10804411082891167,0.15334279590943872,,,0.5139548513420691,0.06267792951888047,0.08673395667383396,-0.17017092649145762,0.09261362807693406,0.018862640766296408,-0.019387478732685377,
ATT_DesRoll,-0.05040381552939949,1.0,-0.06984303984529357,-0.06130850198054458,-0.0391372587341556,-0.024661392702800662,0.629240036936676,0.009671357212813394,-0.007013773310555247,-0.011730446172428974,-0.006649940810313513,0.011162521008909687,0.010412826849461583,-0.048304264304544584,0.1439029120924291,-0.05125525540280949,0.12553748330170295,-0.05237785937660442,0.12491329415069785,-0.02172878932384184,-0.007533569256511443,0.06517306673390855,0.05179138004515495,0.009678488833068674,0.059581513290645115,0.030012575610437832,0.06348388371239379,0.07449694295441162,0.009830945093815407,0.003351721138896131,-0.050352351424835906,,-0.06928765417688582,-0.28903458857289543,-0.034354880726676,0.011276937352796196,-0.060907160462331376,-0.021551421319572304,0.037227768417512325,-0.00301780149997787,0.03155622690845587,-0.03890486136786707,-0.03824054845206193,-0.023510585488376562,-0.08183308927218157,0.009679065443036134,0.020163674187772856,-0.01540502829443765,-0.0034605750363492036,-0.03164864453184991,-0.12922088667521842,-0.036368401910145405,0.1368177490055602,0.015175557473832577,0.23367610178644674,0.009672324960314104,0.1433785219762522,0.006073539780174894,-0.04133519904311139,0.06193534503810863,-0.06881193561925615,-0.5300737251519111,0.04971694529058497,0.053407145306134926,0.13763287878533945,-0.26649067416227196,-0.0642065244793498,0.3052807452704813,0.16328783698586147,-0.013320040627789837,0.017388292631442762,-0.10299399651082675,0.0015207159290113069,-0.0003815432270565265,,,,-0.02508923444013924,-0.010618583249715471,0.12329131763051518,-0.04380115425757917,0.022938520187842242,-0.0017958071502161411,0.050736704312332646,-0.05159557440240232,0.028130203230471135,0.022730842822053277,0.016210906267418314,0.5349965356336325,-0.09592044947388259,,,-0.10656528690431309,0.058894995504270686,0.09351796888707696,0.024906080859763053,0.014378204163265448,-0.028516608628734036,0.014615358324935488,
ATT_DesYaw,-0.24399100423782177,-0.06984303984529357,1.0,-0.024709157870420766,0.13846663296621883,-0.24732462303316663,-0.0882210857300594,-0.2193699200013594,0.9670066266917505,-0.036332090594528896,-0.009746749218803894,0.03673304558105809,-0.020346987678658723,0.017574122554560968,0.028802917848036697,0.018589331892572086,-0.031727118759636734,0.10325088752036093,-0.059091548073545816,0.022303097146395626,0.22541885806965015,0.01617214879572134,0.08648154064820199,-0.2193682133798469,0.08500220081120015,-0.1783288327865928,-0.22441600631461883,0.05611760493895357,-0.2196598747466865,-0.04592184190233858,0.0688143397747892,,-0.11597040396556087,-0.3828817541874374,-0.005040426588366513,0.0584729214422937,-0.02796408604121271,0.21620326633872988,-0.09382339131233754,0.1730816955536037,0.12811003292306739,0.09698550551252924,-0.0421418788286639,0.19258022506066724,0.03776705424212881,-0.21937757071137193,-0.2193624537817085,0.05390282177979303,,-0.18611743100716135,0.06660204473591064,0.018268332002393722,-0.010224699645109876,0.023731901167516077,-0.003889467642876232,-0.21938539560073003,-0.12283280466180088,,0.08172206325159233,-0.15375618282929884,,-0.06061905341253877,-0.054853662698514924,-0.015302454640474868,0.14456841846706955,-0.022554635809468093,-0.15588303445880375,-0.00028316998123380926,0.15828502142410844,-0.007156200610785303,0.03430617821182977,-0.223576367120658,0.056519984780567474,-0.007875706814656021,,,,-0.03452477878468967,0.13189145352266107,-0.01978222352179057,0.002731713871018312,-0.21370286328820517,0.016182009318352,-0.10877192915538772,0.08073944087882312,0.04888487699901822,-0.1869680273219035,0.034997961881828625,-0.05573268674517337,-0.16254409884711726,,,-0.23237134562917106,0.04408638037036137,0.060405405708099325,0.17085215541684845,0.03054313230701486,-0.12716412840183502,0.0016766906893696367,
ATT_ErrRP,0.07871266948740731,-0.06130850198054458,-0.024709157870420766,1.0,0.21762889833797483,0.05645499833956358,0.06066087814600666,0.06669504331480412,-0.11316723481631093,-0.08183664328014195,-0.0016952598810816184,0.07903419553061758,0.08333185143089022,0.09567710981074265,-0.03314235110174564,0.09619723238743405,-0.030530203219910963,0.01711511080641583,-0.0014149494974134897,0.04585242659561641,0.16938881395205002,0.09934378289040269,-0.011943585563225629,0.06724973947739478,0.17080300637124202,0.03813038990924061,0.12540478831161686,0.1662325274961904,0.07081005885047967,-0.08812726341542566,-0.08011755288600748,,-0.10907321592179436,-0.2275537175117484,-0.003715638950511643,0.13457224342980012,0.016038148373777403,-0.06305098729620062,0.10048615030243373,0.03811868119183834,-0.09033704846764556,-0.14470207028776974,-0.018171321058885918,-0.019193059977379395,-0.26666549721310595,0.06673835039956949,-0.00021173555507213634,-0.022007974641734568,-0.1813508371797841,0.08862461384636347,-0.1431743187358574,0.2026117763603411,-0.008010068587402835,0.004001933624271196,-0.010623669249305393,0.0667209316710566,-0.12152192217964419,-0.11155772344864218,-0.04940936294624553,0.1916052946757497,-0.023542220060351306,-0.013802271604914878,-0.03351194802575995,-0.04953857575885331,0.04244950606119783,-0.040679807406905556,0.0026642381621549186,-0.040426837894385746,0.038050126991365674,0.04712577613667497,-0.010582927087360859,0.016472765320661904,0.02354274793284716,-0.0007254911435288721,,,,-0.010220441699089677,-0.03213771467485725,-0.05101588150611907,-0.040984932646267465,0.049815031375617456,-0.01933722363534687,-0.03590816280090809,0.05498529025190944,-0.039470887181276185,0.046607306022314776,0.00276136394882645,0.022810269423708816,-0.2224441457005419,,,0.0631285830827898,-0.01500032537661551,0.002748788904630702,-0.020690541811767518,-0.04321538510863559,-0.050326003721082285,0.015906049218623448,
ATT_ErrYaw,0.002628921359986745,-0.0391372587341556,0.13846663296621883,0.21762889833797483,1.0,0.043409037385268114,0.10825078503118156,0.04897588032207368,0.035310338494828425,-0.1834377660468922,-0.01091035461935012,0.17894744209854177,0.12108411045626283,-0.10279339553214185,0.027583690079025516,-0.10297738122094857,-0.04867906802454914,-0.040301523042296956,-0.08742316429923562,0.0772965891367692,0.22197088158753597,0.0327242296032285,-0.10007694321597606,0.04948192740514845,0.3199080109875685,-0.022951538635953724,0.1574527254670066,0.2016707348494827,0.05070513055913309,-0.07175639943753345,0.0164266602045659,,-0.17092893298400944,0.21276404306151492,-0.005066301345422052,0.12194466553922283,-0.1498237005301708,-0.05844250007493019,0.20786566911942503,0.06012784542118225,-0.05709594261831611,-0.2630893499342781,-0.06067039991983853,-0.0703675601456617,-0.3651333681624578,0.04905181968278039,0.012413546726454582,-0.017971434636730736,-0.20899612472999424,0.04720203049239363,-0.15058169184187103,0.092190510939527,-0.009065001404809488,0.02842036075169018,0.008750619936313878,0.04901011650429756,-0.15236001308113706,-0.31656017296913064,-0.06959189400730441,0.07618291002010857,-0.22271605819993262,0.030776338806326204,-0.07133975176443812,0.02252221514676715,-0.0924466309598946,-0.02723207285087853,-0.23060131077845128,0.12072595404622717,0.05842755190422406,0.04841066384236118,-0.02667251079652842,-0.12054087710016394,-0.19284265964236283,0.026436093064422857,,,,-0.2011836965251313,-0.08561816106891222,0.06315909394315931,0.04842785304344155,0.08854245956131433,0.0037716801102967205,0.037097477957409954,0.08992781037332037,0.06902552356630695,0.0893904520979125,0.07936073774685713,0.02785618826329757,0.10383816554936613,,,-0.07621138450762802,-0.2090749513307976,0.11844948603335573,0.0778986262274977,-0.17386666788917543,-0.03977239761301754,-0.04511240916084064,
ATT_Pitch,0.58126700888365,-0.024661392702800662,-0.24732462303316663,0.05645499833956358,0.043409037385268114,1.0,0.12328202842768851,-0.1476907142026975,-0.11191676887519748,0.020871629915080396,0.15413005262498874,-0.02501037721695347,0.11487544284661001,0.00947810122921442,-0.0013146826662274458,0.005017059052885636,0.01749335146522349,-0.05345637730581898,0.020551912682495708,0.08793070074099014,0.03186342972859421,-0.01576355616769661,-0.006743005403161325,-0.14773846018029801,0.04463112293596876,-0.07546649764142524,0.016317174988241586,-0.06233416303545002,-0.14806037174109607,-0.021641831089337683,0.032546987985451734,,0.022955368644764725,0.1637178949742242,0.02763863484969203,-0.0060857433605594645,0.01780018754338413,0.04517582150707549,0.041938127031334864,0.052160879509260474,-0.044373008760429884,-0.04120089685788307,0.11213329751632974,-0.15506552466706183,-0.20634670094922422,-0.14772081323663142,-0.09526759081337664,-0.16265844126429807,0.01206617213469598,0.5993815280482807,-0.1351813697423731,-0.06053971128754375,-0.0020202213765484816,0.02919124037699411,-0.0563288218664061,-0.14769294768971022,0.2114561877561104,0.026590676531629356,0.003074474038905367,-0.025618004541093677,-0.14500951980978277,-0.10051788563479226,-0.35200742689577225,0.17737844325470975,0.030320985034781194,-0.16666596048958143,0.04577894372593511,0.31325677993091516,-0.07190686482599157,-0.3659341851025899,-0.038233254741029135,0.0946247259230929,0.042697867584378116,-0.005895425079287676,,,,-0.023155310353125298,-0.20453300587269352,-0.06041586996890195,-0.1023663597884839,-0.0884924738047077,-0.04777496365271363,0.18939661222690912,0.08003694844216504,0.1684013546717773,-0.086715158742732,0.024598922620436475,-0.11003237987686097,0.15983383480223873,,,0.48465054244681915,0.007397243508029609,-0.0271877789639998,-0.06523613662934728,0.11236435044063531,-0.024484179556526927,-0.053558873761821495,
ATT_Roll,-0.05333573916939728,0.629240036936676,-0.0882210857300594,0.06066087814600666,0.10825078503118156,0.12328202842768851,1.0,-0.11153495177629007,-0.10691744216546203,-0.06499695642851805,0.006937655886596282,0.06071378956261402,0.17330741645798042,-0.021939255228840774,0.19958362562164417,-0.0243514077376614,0.11088666974251031,-0.026339892975801648,0.10877644216600971,-0.0035723765456276892,-0.030977528643365747,0.04075528328198348,-0.1154079299817993,-0.11154512402695474,0.10210122760143979,-0.013693424263137424,0.060693694361408576,0.056147197823403015,-0.11170872377615682,-0.028997304847308596,0.006488766762519407,,-0.046461809778353395,-0.2938046456616455,-0.045787575188311655,-0.005568947463346621,-0.004563838478869437,-0.01356149424462802,0.10026301954727615,0.027160075442833755,-0.07921523807566969,-0.10360393108856776,-0.025347492138646354,-0.07965620540154664,-0.25040552394399734,-0.11154099961656413,-0.11111869949369314,-0.04124265299390032,0.0001441966441967113,0.10201390539128037,-0.49483476889476935,0.05969333815344078,-0.015740650085498704,-0.024567575315555156,0.1734953126559416,-0.11153610181909325,0.15534997788656918,0.09880522966394546,-0.11733597213639083,0.039173103057246084,-0.20046127284124196,-0.29897089344039296,0.10453198007374358,0.011444043009604866,0.14998241336034232,-0.20041836480252714,-0.1378441563743986,0.11974220655538469,0.16929229301537652,-0.09681758890724425,-0.09853232927246876,-0.14841122478354316,-0.10271564091049776,0.017905968312107595,,,,-0.03224979279841668,-0.026450400156369562,0.06900231520966282,-0.06218325483437179,-0.12962471411067164,-0.06680144170191711,0.18983856356287526,0.09539802210207454,0.1734896397782444,-0.12802835240965862,0.037142208071446456,0.47257466492306843,-0.09734814741565233,,,-0.07426480062138897,-0.04608333504432703,0.07921042782359607,0.044265946418235926,0.01626721829018376,-0.010990305319479794,-0.004647248148802556,
ATT_TimeMS,0.022224227028105916,0.009671357212813394,-0.2193699200013594,0.06669504331480412,0.04897588032207368,-0.1476907142026975,-0.11153495177629007,1.0,-0.20531099496289218,-0.051122292546683025,-0.13086862961569437,0.053318827670951426,-0.3425435599322874,-0.06938384464549158,-0.1424222558900653,-0.0678215397168356,-0.16305714535369265,-0.09224719868046326,-0.037970372066951835,0.27689644778697725,-0.2127401058561952,-0.12025524596321235,0.14411345256656322,0.9999994342626369,-0.002837090379270013,0.9831833406974262,0.9968344783190354,0.07481131237997354,0.9999906542971796,-0.05355360759634176,-0.6828561477429653,,0.17710858934859447,,0.011291646695536795,-0.03658412320978846,-0.045859091752325686,-0.0745443565422524,-0.012492937771777844,-0.39124912322497546,-0.09516788015141597,0.03404081526889556,-0.057452601018872874,0.020392573220727246,0.01036095848319381,0.9999982436599119,0.8695586802638369,0.11586830023165098,0.03654314431703625,-0.1951914823939822,0.15796633868900029,0.07371412100407271,0.00245799331566515,0.0015106209329986994,-0.003417363986336274,0.9999995631166715,-0.07128442465958994,-0.9241317448325062,-0.12062507910576314,0.4861888122387541,0.5621397055212127,0.3082736723442405,0.10189210393014018,-0.5802541992801796,0.12763312006485597,-0.009796992931190221,-0.4529653881158247,-0.6042986787876011,0.3992588818768685,0.9349543252502945,-0.07827915652078186,-0.34054087365217917,-0.1315210441945439,0.027392745982515822,,,,-0.26155704256031487,-0.19899936652467282,-0.05337438940008196,0.2692443814139744,0.9440102965617083,0.04093301117296186,-0.1484552677465993,0.03884752357512993,-0.14643539001836609,0.929402366752325,-0.05088619859100518,0.12826407573539958,,,,-0.02969019912648756,-0.0964899112758767,-0.003957952107136085,-0.039827639078401186,0.09464100046650055,0.21476031541414575,0.07348344586755941,
ATT_Yaw,-0.1280783925048509,-0.007013773310555247,0.9670066266917505,-0.11316723481631093,0.035310338494828425,-0.11191676887519748,-0.10691744216546203,-0.20531099496289218,1.0,0.10747306298061154,0.031054159164781825,-0.10554466884980246,-0.04822371943599066,0.018067214606675604,0.02824573584162655,0.018904490016122412,-0.02321942766670207,0.10479537823333755,-0.04571968392710701,0.030421899070389242,0.23067187134338124,0.0244708928495447,0.07681601946490575,-0.20533188993547652,0.0546770026231473,-0.14401178946459148,-0.22442433116273877,0.057719653624232224,-0.20551182862201547,-0.038990451516293746,0.06357078776267384,,-0.11654882624378375,-0.38675682810603607,-0.004269692034601814,0.058792757183398624,0.01603909284279604,0.43602938865991697,-0.03938183392362027,-0.01332179694671586,0.08542283947999614,0.05466880726797594,-0.015789576011703825,0.08213620874813023,0.12104340586871636,-0.2053098719448312,-0.16399654577468933,0.028459295636819766,-0.006386835345537532,-0.07683218289286023,0.12865572789096616,-0.10316417319840505,-0.008531540135112672,0.010169959218196606,-0.005584239881464327,-0.20532192286247594,0.08011005102362362,0.10369731935691731,0.09858706124791994,-0.15259909177870432,-0.014430991605111113,-0.11480813643946025,-0.11386934921989744,-0.03171650946035749,0.1481260109547614,-0.08183804233826478,-0.10968665029940261,0.06532570733908782,0.09877127642669008,-0.19087826528093077,0.04648796239467381,-0.17698971223439677,0.01244890192082736,-0.0032733457989972486,,,,-0.03680904862638592,0.13508688829424484,-0.007135220373926034,0.009202753856864953,-0.20145703328532596,0.04270403466690157,0.05038143225507902,0.10488326601883395,0.16832736158383896,-0.18081112213194298,0.04146562106553618,-0.05769799328731135,-0.1614589627178212,,,-0.14230617057701095,0.08172127020050991,0.039271025019958654,0.03995426445222881,-0.04839435878811691,-0.04017598831763649,-0.02378594492064774,
BARO_Alt,-0.1635958250749977,-0.011730446172428974,-0.036332090594528896,-0.08183664328014195,-0.1834377660468922,0.020871629915080396,-0.06499695642851805,-0.051122292546683025,0.10747306298061154,1.0,0.02372955353881491,-0.9997436983810508,-0.3255107876294398,0.9997719848363913,0.08486789555406248,0.9999972098005074,0.011713175589060114,0.7226496882157282,0.08899807289079023,0.29268545208649643,0.42854244123315677,0.061117995324567145,0.37110400318112274,-0.05102358868147122,0.14960921890340945,0.01829242994364272,-0.025369638589259853,0.2197060196433931,-0.052115959346452724,-0.14059515339766646,-0.2954810135764053,,-0.09970144215598067,-0.6408806821286002,-0.0063859732089268,0.23854607878434686,0.6753820560520022,0.046925822813351004,-0.04677185690386679,-0.025605602791278485,-0.04485759358620304,0.1837564002742013,0.9459218859806433,0.29853523280527183,0.0980581913141705,-0.05113232044652477,-0.04660115485264386,0.04104027123255896,0.004676014425804587,0.026658228582440685,0.14978206311132083,-0.1496880943316112,0.006808485858400531,0.005124027670915143,0.02276123657929146,-0.05107509572106137,0.19464636908868382,0.151143244623375,0.2354807364585932,0.1787155758672387,0.01405295671566864,0.1537931964738484,0.16587218776791432,-0.14989480144019904,-0.05481991960738616,0.11341467593041142,0.14063033132780686,-0.1898286457956111,-0.06821592130301031,-0.02887882127665145,0.12378175356514663,0.05268387488021783,0.06981237746449072,-0.008683307723026666,,,,-0.05914940728396742,0.09845768133036854,0.030426942607131115,-0.5609604914402198,-0.15349811501311952,-0.024535157866226866,-0.33249612866418515,-0.09127480225606895,-0.33167713981006863,-0.1567325118728882,0.02210473838323159,0.037157058839915456,-0.7306137855033763,,,0.02214853241594509,0.36139913697488757,0.004742357939991641,-0.08382827974061055,0.1671432272390268,0.018237432730607305,-0.003295225241204532,
BARO_CRt,0.09909698273094988,-0.006649940810313513,-0.009746749218803894,-0.0016952598810816184,-0.01091035461935012,0.15413005262498874,0.006937655886596282,-0.13086862961569437,0.031054159164781825,0.02372955353881491,1.0,-0.023854361924144824,0.17360607937887063,0.008100789524399252,0.014149938165398007,0.007451742422918213,0.7890702514381873,0.013953743086777133,0.4600122928275231,0.06522247452869526,-0.018390969702544537,0.3650240482371716,0.09384214829524226,-0.1308347843748893,0.2005809214207123,-0.18822304511190105,-0.1543069005092489,0.12387476847660085,-0.13095975982014843,-0.10949107765375607,0.07383128720483366,,-0.13986181145217444,-0.3868330152582832,0.0018287252943798864,-0.007743660518307128,0.025747783937489634,0.00898667190991654,-0.018775046847399158,0.06954781542715137,0.06581525832390504,0.021722927471954884,-0.014438209612607918,0.0007511182899913765,0.10324998705803808,-0.13086221377959123,-0.1304391642528243,-0.6332859737684057,0.0005917066597466707,0.09707268781595807,-0.015360653397139169,0.012488575942576553,-0.008475099533346863,-0.005661439193296069,0.019012251105266387,-0.13084919771431014,0.06821931677958021,-0.02311919574074338,0.044288818339609404,-0.09509233011197193,-0.06744507419101893,-0.09332171064201718,0.04685477346951545,0.13473016008030336,-0.06372696263780098,0.06490865368097291,0.09516938059529705,0.11913959726506625,-0.088494185110687,-0.1455815525954751,0.03824484791178784,0.03686448603583208,0.0007574557327767193,-0.00017134525895686265,,,,0.07527654797089066,0.0917818378235749,0.05180822028335128,-0.026854739455733505,-0.16390237524794052,-0.026474842139683725,0.06365039114732322,-0.037975168326768914,-0.023156712927102516,-0.1707439846366261,-0.02597454841738407,0.022590389980443264,-0.14298709048350416,,,0.08166273672691167,0.23478508191964145,0.008638374078922076,-0.02755581943623458,-0.0032623955770031848,-0.010452552406402853,0.02537268906682459,
BARO_Press,0.1645303284644364,0.011162521008909687,0.03673304558105809,0.07903419553061758,0.17894744209854177,-0.02501037721695347,0.06071378956261402,0.053318827670951426,-0.10554466884980246,-0.9997436983810508,-0.023854361924144824,1.0,0.32309813526620434,-0.9997661353126381,-0.08481112698162058,-0.9999916740957039,-0.011733492792100925,-0.7223435001407573,-0.08882309323818387,-0.2935585143500212,-0.4286629076772989,-0.060918947760685675,-0.3677113700612321,0.05321982479873816,-0.15523547876244873,-0.009288308489062147,0.024227586139394908,-0.21975821157123906,0.054304541736554385,0.13936249533587053,0.28840881438155536,,0.09968265436606796,0.6407244965359227,0.00639779478052284,-0.2386206481593682,-0.6780115181901513,-0.04708526980526056,0.04510530399078366,0.02194385497659161,0.04885663364235721,-0.17845571986717482,-0.945662083223643,-0.29580294413091013,-0.08941477300254276,0.05332870740648125,0.04622678621205221,-0.040020023342002296,-0.0038509718336999844,-0.030786840274988705,-0.14571743247700325,0.14619533702855386,-0.006770569505515487,-0.00423391555657804,-0.02278010532249585,0.05327160185718508,-0.19869008387758688,-0.13855243633911657,-0.23310984891153178,-0.1787061143071106,-0.002008029082600826,-0.15378387073399738,-0.16584824378054838,0.15007058324447492,0.05467661909652899,-0.11316675214538773,-0.14055198766425017,0.1900792046963294,0.06817954891311401,0.03212708797459283,-0.12353899021428368,-0.052454177254089025,-0.06853327501002224,0.008551895365906767,,,,0.059454734227575703,-0.09817583998974927,-0.029965189781630965,0.5608894073704463,0.15457321772205598,0.024140127073447926,0.3315818651887628,0.09184795256566387,0.33079322112871057,0.1577543212653571,-0.021968386403779034,-0.03762051455786338,0.7313020547232463,,,-0.020036806089576108,-0.35675421407475716,-0.003949115012385913,0.08290507592074765,-0.16895275256749723,-0.015628108509358436,0.004743603756667038,
BARO_Temp,0.0637322365911185,0.010412826849461583,-0.020346987678658723,0.08333185143089022,0.12108411045626283,0.11487544284661001,0.17330741645798042,-0.3425435599322874,-0.04822371943599066,-0.3255107876294398,0.17360607937887063,0.32309813526620434,1.0,-0.3768253909847826,-0.013159151580370263,-0.37727774330835906,0.20975145222678176,-0.31300437927479297,0.06918087275565617,-0.3951641664653174,-0.41070870102916524,0.0449008351663923,-0.34131519240543773,-0.34266532004656347,0.15665392539496878,-0.3875742233311344,-0.436629041715966,-0.2952224969097191,-0.34225401233706965,-0.022046585466802354,0.47811092553970325,,0.06193473474000941,0.21049902723710634,-0.003981030116547175,-0.20374315074353883,-0.13493476902881438,0.10853906532597708,0.14244088281872777,0.2490240028753593,-0.07418247401156373,-0.09109655005745365,-0.22254979626674212,-0.2850786687593995,-0.009182052444533165,-0.34258079786766743,-0.4838606950720807,-0.20260361967163326,0.049735290134604655,0.17273322496158167,-0.2552486858235978,0.07147053609839925,-0.0027117920954420217,-0.023509903728883227,0.020836199621248067,-0.3425849216301992,0.06700947645721096,-0.03946391686733586,-0.2637756296744074,-0.36505290816131053,-0.17236170599357747,-0.41532773738984013,0.22150791151726798,0.6728246393562961,-0.08344460815555882,0.28113734083061187,0.34145293663617377,0.6025339110934701,-0.2628548673558468,-0.4876327149811944,0.2523874846370107,0.12695565548037357,-0.09658389031640402,0.01180851643135448,,,,0.26066960398864203,0.07055913088807342,-0.10325861118006446,0.23342903963821104,-0.3230311680381524,-0.08673437288121219,0.21621214074050096,0.13836673743817593,0.1750592671976047,-0.32177823950201345,-0.0008098579858177698,-0.024380089198919937,0.1868794706496861,,,0.020224510341875567,-0.187982276687821,0.02017274079057411,0.21078298374181473,-0.03244084436360205,0.10378815982677717,0.15323198452473202,
CTUN_Alt,-0.008138995845222107,-0.048304264304544584,0.017574122554560968,0.09567710981074265,-0.10279339553214185,0.00947810122921442,-0.021939255228840774,-0.06938384464549158,0.018067214606675604,0.9997719848363913,0.008100789524399252,-0.9997661353126381,-0.3768253909847826,1.0,0.06684902512469157,0.9995772487607567,0.017689477358470217,0.7459076647091485,0.01370781966496509,0.29413931152280826,0.4291459424668884,-0.008835643964975376,0.1359045881349977,-0.06920508064176598,0.12476130586556282,-0.07393529189834573,-0.05450869077700131,0.15509191229832112,-0.07071641312930471,-0.14941053616074312,-0.10273750816179328,,-0.09555040530720502,-0.644697764469845,-0.0064387721247096685,0.16532557578043217,0.8364761729592564,-0.10373357448547763,0.04267444944826297,0.24861324690581946,0.06254135972353927,0.0018049218659241194,0.9999867358484289,0.03015369592010536,0.11413320479380076,-0.06930807203267716,-0.06930741641597023,0.05718222138668363,,-0.05189151498479344,0.04266527761762453,0.05898216314619085,-0.0011528614202777428,-0.005759000749588627,0.012892522376594412,-0.06933086619016204,0.07709119744373279,,0.146667584463065,0.14483300125342985,,-0.01304276978130417,0.016720435047743495,-0.084723992907047,-0.09065344561892935,-0.11885348045277322,0.23072660591833774,0.06475251514692745,-0.19500634255082466,-0.2775545163416881,0.05664203610752032,0.16271093375180423,0.06446569242595648,-0.008891637194395901,,,,-0.028448920266949174,0.07546995829656825,0.030093901367710577,-0.5639357264903064,-0.2321337453238117,-0.05895272926555642,-0.4089453996588074,-0.4020614584255984,-0.509976176939248,-0.28307110614042164,0.003993952368408195,0.03220504367322345,-0.7322201106371358,,,0.20810022064458467,0.06672337956771703,0.05720072005403819,-0.042929970584372146,0.04826085768267361,-0.016176298790374317,0.06313798577911438,
CTUN_AngBst,0.005082153879324883,0.1439029120924291,0.028802917848036697,-0.03314235110174564,0.027583690079025516,-0.0013146826662274458,0.19958362562164417,-0.1424222558900653,0.02824573584162655,0.08486789555406248,0.014149938165398007,-0.08481112698162058,-0.013159151580370263,0.06684902512469157,1.0,0.06748835776637278,0.06894816172400707,0.1145014262971636,0.033297952471053334,0.030404627511508707,0.21369615526010133,0.045161508348714366,0.20282423615584205,-0.1423355787705396,0.193995312680714,-0.06015287537035006,-0.14911455724376005,0.11681772556004688,-0.1426855421199274,-0.06047233159516744,-0.08594334970319618,,-0.07140210067441373,-0.28618746893204206,-0.027405593362400168,0.05576117638628682,-0.027309891733652357,-0.03039621862383462,-0.028147805545278654,-0.030372254508643236,-0.0005741270174371204,0.03258349814419388,0.04187445381574146,0.04326864057734819,-0.2980859739459051,-0.14238126252862165,-0.1423773850735594,0.003622243868667235,,-0.012635171804595535,-0.15092365091972484,-0.1163118583654558,0.02746850934397956,-0.08947406495862684,-0.018976849541414344,-0.14240931547272573,-0.0733691431035162,,0.08839900901188127,-0.11059794571393722,,-0.008826104903265472,-0.1457460264200744,0.08960749311515326,0.08047464894748282,-0.056583210788846795,-0.038715972466143486,0.03435298301499765,0.035569645453628375,-0.1415192863023801,-0.18525770703831948,-0.14298131773811668,0.03381215360922745,-0.004742660548562498,,,,-0.07256103224859156,-0.05270172664211951,0.10199383761553833,-0.13409853469543195,0.009636219741906931,0.0005490745860129449,-0.08496270086777372,-0.0767240591869505,-0.10857160752401197,0.018163689786219548,0.042166599169543476,-0.007048719249617665,-0.1171975167304258,,,0.07007328584653252,0.04250495588301688,-0.007509854518641289,0.051293730224925595,0.041403192052195815,0.05164122470480301,-0.017768663236230324,
CTUN_BarAlt,-0.013649073119833321,-0.05125525540280949,0.018589331892572086,0.09619723238743405,-0.10297738122094857,0.005017059052885636,-0.0243514077376614,-0.0678215397168356,0.018904490016122412,0.9999972098005074,0.007451742422918213,-0.9999916740957039,-0.37727774330835906,0.9995772487607567,0.06748835776637278,1.0,0.005828363613208444,0.7458770124276135,0.00710645803498427,0.292669091049849,0.4285256317213709,-0.012450874407585051,0.13393256536081982,-0.06764840007013344,0.12351487015474809,-0.07335929168782253,-0.05286593821339104,0.1544383250991915,-0.06914560369724672,-0.14878662361309597,-0.10194683658966655,,-0.09495923923493939,-0.6408641955683779,-0.00638587617781632,0.16483266068023608,0.8375645708011215,-0.10164029547971065,0.04276266700196235,0.24974585538085084,0.0621874323312789,0.001374466135050778,0.9995968141342301,0.029902439424428773,0.11781688444591505,-0.06774873640551204,-0.06774824729193096,0.06358022072553704,,-0.0535650882346436,0.0473679449175924,0.060690705984361916,-0.0007642990104263815,-0.005373400471694574,0.01502720319458421,-0.06777172853939449,0.07660625624934939,,0.14743932067878918,0.1444004654155414,,-0.019163331671819404,0.034994503704132957,-0.09056722383534324,-0.08043158442025418,-0.11304965601606841,0.2202960001716151,0.06387573729545802,-0.18710385738906823,-0.26010347127740646,0.06267290676398787,0.14930404495087318,0.0637524022708193,-0.008788296174663873,,,,-0.029323200679509453,0.07684318142375386,0.030378082655440654,-0.5609499292328287,-0.23234774754565368,-0.05916130485254871,-0.40858525452623196,-0.3989221080948003,-0.5065028577286271,-0.2832205743675104,0.0034012946711451005,0.0317800083555749,-0.7305760057339599,,,0.20864930470307,0.06458166516971417,0.05670144215877353,-0.043726533924355576,0.04872487753490229,-0.015493129697799365,0.06257003940843063,
CTUN_CRt,0.044360486926001225,0.12553748330170295,-0.031727118759636734,-0.030530203219910963,-0.04867906802454914,0.01749335146522349,0.11088666974251031,-0.16305714535369265,-0.02321942766670207,0.011713175589060114,0.7890702514381873,-0.011733492792100925,0.20975145222678176,0.017689477358470217,0.06894816172400707,0.005828363613208444,1.0,-0.02110443099794621,0.606352554667912,0.11030050326536753,-0.03233653341755331,0.4658512681352983,0.18453187248477057,-0.1630323516513683,0.3229852445194551,-0.19864354889740637,-0.1731497935430706,0.1965393483426714,-0.16340258448256995,-0.16415583103115075,0.0021905128536150093,,-0.13224623506400113,-0.5838109780108213,0.00023862109270500028,-0.001971198995751713,0.007779000646302578,-0.06100642128670686,-0.05216835990381091,0.06520950408838808,0.05251899707704435,0.06000033973993994,-0.008927976155605345,0.002591517469213847,0.1612503698848156,-0.1630457877215562,-0.16303883285562065,-0.8892526089801084,,0.006422460868456626,-0.10571067546244903,-0.008303518378119296,0.008812015825913469,-0.01234256227939529,-0.0032975417191898225,-0.1630435141201847,0.0690043767083332,,0.030325345685901263,0.008047741478822715,,-0.03164368643960479,-0.1372601656490298,0.16197307326894245,-0.0847765565056762,0.010042370355025226,0.14801973220676612,0.09316087827383514,-0.14505230411600217,-0.34707609627973696,-0.057715650586036144,0.09971597209911613,-0.008239803996029,0.0011081670493128294,,,,0.19750916044911182,0.05821720256799125,0.05235750282445216,-0.1041464131094223,-0.19136914094397636,-0.023310246452571907,0.03912997910983554,-0.17461035475641828,-0.1934751695544328,-0.20809176112392483,-0.008706286575330562,0.07865455968006752,-0.24767245551694386,,,-0.0393616117679553,0.4464209519814075,0.030450289101591685,-0.0616050953115444,-0.004362634910025937,-0.009956054094398632,0.08751777122237742,
CTUN_DAlt,-0.06914257204787776,-0.05237785937660442,0.10325088752036093,0.01711511080641583,-0.040301523042296956,-0.05345637730581898,-0.026339892975801648,-0.09224719868046326,0.10479537823333755,0.7226496882157282,0.013953743086777133,-0.7223435001407573,-0.31300437927479297,0.7459076647091485,0.1145014262971636,0.7458770124276135,-0.02110443099794621,1.0,-0.12432281543247196,0.2202162125765346,0.4387123171406485,-0.05602321943641442,0.11670882201516394,-0.09206464366410243,0.09539682645640449,-0.11969493101570458,-0.1042299939955979,0.1231567795088816,-0.09351441581766841,-0.15373721632222936,-0.06547819239022952,,-0.0930586236959297,-0.6498822808129849,-0.006037521950672039,0.15778270559919977,0.5853494177881997,-0.020617575237191446,-0.04132018346798812,0.14859858398851777,0.07805146049908014,0.08812355967641997,0.683141415629305,0.13777690789039748,0.12474988409060095,-0.09216596856993124,-0.0921565003170304,0.10512821744749719,,-0.08204095495223798,0.047586070605018724,0.03327737251687193,-0.0003847805094515025,-0.00022643593131324718,0.014164850132530205,-0.09220065279321778,0.029889066632139506,,0.3647459825311937,-0.12649882095684037,,0.07394990063153911,0.0013432209653648636,-0.044909880386615725,-0.13568952782751145,0.021972316489414445,0.2731220324347544,-0.03623499333083613,-0.21646765417379124,-0.31058858865383726,0.07182047825260807,0.2076761302334174,0.0657393901851007,-0.009099286654154683,,,,-0.08089268189334767,0.29124570661378557,0.31939630266741365,-0.3357929838958526,-0.29561286457774194,-0.0410422792525731,-0.40236604221382966,-0.2284672412847767,-0.3472600433610273,-0.3326776901939363,0.04039702401774062,0.04881312401234964,-0.7428939885989854,,,0.11024192510171502,0.013242441741549923,0.03448174549846668,0.2716921290016583,0.0476797858180436,-0.007889293609057426,0.060706176314576664,
CTUN_DCRt,0.048268844757695877,0.12491329415069785,-0.059091548073545816,-0.0014149494974134897,-0.08742316429923562,0.020551912682495708,0.10877644216600971,-0.037970372066951835,-0.04571968392710701,0.08899807289079023,0.4600122928275231,-0.08882309323818387,0.06918087275565617,0.01370781966496509,0.033297952471053334,0.00710645803498427,0.606352554667912,-0.12432281543247196,1.0,0.34416780289665183,-0.006864740255467001,0.5562886302467145,0.21156942046325605,-0.03788429461869532,0.2680336869885606,-0.07433928982858215,-0.021725853767528572,0.19914673571109442,-0.03808924688913082,-0.10588492229797719,-0.06575501292225835,,-0.1677362272254818,-0.5835343697991863,-0.00868602968591708,0.04925817358261371,0.0024540669567732947,0.015410051717963924,0.011994815366506439,0.02114812019414553,-0.03958480864142925,0.00645044204024392,-0.011724850003378466,-0.020718810188854755,0.15345168474152093,-0.03795645753468595,-0.03795653613112218,-0.5028899083945078,,-0.03620359240601945,-0.11914219804025894,-0.05096132428826772,0.0049104549960065445,-0.0018840232916108508,0.008324365117033104,-0.03793077155332119,0.0840497854422281,,-0.053742918386096405,0.00861146319850154,,-0.21008295748881578,0.11667137901597295,0.23359895043173895,-0.17078805719650605,0.14762128863435273,0.2566802033736347,0.2528726200920704,-0.1834366031125487,-0.3399422431938267,0.1169775420627183,0.0466149930892201,0.04184258380853844,-0.006060806015632181,,,,-0.005962199987922071,-0.04880664606898931,-0.05440670426167261,-0.22071130598369249,-0.13227826100896323,-0.04121710598100907,-0.04575757407063012,-0.20963549843816265,-0.23598113150336775,-0.171221755977879,0.0009470097019895573,0.0885287419913536,-0.24721796795423717,,,0.018213521774502462,0.4969692835656535,0.05155966517542497,-0.06696760904736941,-0.004023573148860522,0.20591498448034037,0.09221641458519698,
CTUN_DSAlt,0.0805187202217862,-0.02172878932384184,0.022303097146395626,0.04585242659561641,0.0772965891367692,0.08793070074099014,-0.0035723765456276892,0.27689644778697725,0.030421899070389242,0.29268545208649643,0.06522247452869526,-0.2935585143500212,-0.3951641664653174,0.29413931152280826,0.030404627511508707,0.292669091049849,0.11030050326536753,0.2202162125765346,0.34416780289665183,1.0,0.30119393551683027,0.20439662472312609,0.176928201774931,0.2775008482460417,0.18438334059204353,0.3018418258420692,0.2950737030618876,0.18947317568690009,0.2733919670471492,-0.08767362310578167,-0.40452680237714045,,-0.06074250744072718,,,0.1121517324696198,0.2966897869925392,0.08460883474305861,0.2422626955108169,0.24916522777529587,0.07986256519361715,-0.2330396806800078,0.29394866900356975,0.06321240448988172,,0.277191533328961,0.27723948417294375,-0.10781751259259038,,0.0186006916382618,0.004987139714321312,0.007175527021426102,0.006477444028171688,0.010340729060693938,-0.014429482274344513,0.2772253423320179,0.029355635513898866,,0.20743587553758167,0.0670732619713137,,-0.0004704135798978274,0.2140223702414304,0.6402454232406516,-0.6604044612106338,0.7270814673907845,0.2983871143252497,0.6381234320838653,-0.661119200620163,-0.658284204087548,0.6609155104228709,0.12206012348569198,-0.007815079787192451,0.001684745764485301,,,,-0.7661577421651207,0.08536421800730913,0.06278105755133057,-0.1563094234984977,0.3006508203123873,-0.14155534113617046,-0.19526718959146794,-0.18402951320236943,-0.1805140414750184,0.23020802284723615,0.03594543207203756,-0.0016513030580686365,,,,0.09014570089631743,0.21419886244943642,-0.03089280575867359,0.20505277623903753,,,0.030512983715515023,
CTUN_SAlt,0.030904682574362866,-0.007533569256511443,0.22541885806965015,0.16938881395205002,0.22197088158753597,0.03186342972859421,-0.030977528643365747,-0.2127401058561952,0.23067187134338124,0.42854244123315677,-0.018390969702544537,-0.4286629076772989,-0.41070870102916524,0.4291459424668884,0.21369615526010133,0.4285256317213709,-0.03233653341755331,0.4387123171406485,-0.006864740255467001,0.30119393551683027,1.0,0.509996032772787,0.6909414299528603,-0.21202462373468034,0.6514516724514656,-0.2036498307618202,-0.21042501003606132,0.6914196914954198,-0.21513286364351683,-0.5006050319875768,-0.5135629988356181,,-0.6403658191866417,,,0.6646002062098588,0.4276224294621845,-0.05481051709145444,-0.1052042624835018,0.48181087688445046,0.327878461271821,0.13655832079496089,0.4291669300410429,0.48439963775956274,,-0.2122967308787687,-0.21226684380281624,0.025834410473805386,,0.014461032113481103,0.011755247043838436,-0.001753001284683686,-0.012751146161934233,0.034931252870783774,0.06447712994900634,-0.2124582767804099,0.05954428394385474,,0.4874956437981882,-0.03452488413022506,,-0.31014687505993077,0.4125062974583031,0.4227877557191139,-0.3670963743153961,0.41128999715145703,0.4657542774948378,0.4236883870649074,-0.3840307895500169,-0.388959236620189,0.42203350717855515,0.20648231779553983,0.12955886754771068,-0.026617793579767873,,,,-0.27868108044409656,0.24143942732565565,0.15313776875781174,-0.26679285901515826,-0.24421315479857686,-0.09563432199472807,-0.15457941297510785,-0.12638399941684136,-0.14745249738803923,-0.2518451106926818,0.2017590495515629,0.020887446438875634,,,,0.06137991512507664,0.4801338012281747,0.11682977799491531,0.48633319428460914,,,0.03301827097060112,
CTUN_ThrIn,-0.005867950363742766,0.06517306673390855,0.01617214879572134,0.09934378289040269,0.0327242296032285,-0.01576355616769661,0.04075528328198348,-0.12025524596321235,0.0244708928495447,0.061117995324567145,0.3650240482371716,-0.060918947760685675,0.0449008351663923,-0.008835643964975376,0.045161508348714366,-0.012450874407585051,0.4658512681352983,-0.05602321943641442,0.5562886302467145,0.20439662472312609,0.509996032772787,1.0,0.5448843834214039,-0.11977920837116798,0.5629405514450829,-0.16426587643158544,-0.11954443970688207,0.635255711091124,-0.1241797566844538,-0.3884015235378028,-0.25399696391568866,,-0.5899501911187843,-0.44938494352342084,-0.00874906283330127,0.48578623636133855,0.04163237986754607,0.011265249301876718,-0.10004547243467894,0.07501120467423697,0.08219043421605945,0.10441674502249039,0.004623388013146183,0.15195004970141385,0.26989747461147356,-0.12004046201037613,-0.1200169420278288,-0.44408760239171186,,-0.01677048887237073,-0.03496167736287198,-0.06764113706553479,0.005436867377296785,0.010028172837987294,0.01974189185367014,-0.12013325644618009,0.13934199438725914,,0.06202441240893464,0.15490058812673813,,-0.19094740104836117,0.02747983814601938,0.08112254129094901,-0.14433146933890828,-0.10070053782417798,0.13173512757424044,0.22837673674949674,-0.1622094405655129,-0.16352117111968775,0.010929703894917611,0.07611492436949548,0.17763461126292857,-0.024644067503365508,,,,0.04903535391898018,0.0652353771996955,0.03739984369246419,0.06065759258565582,-0.27761268610647405,-0.01808908873338419,0.1714942551007046,0.055718541506214386,0.06712035928084895,-0.2843403226725246,0.109488372297083,0.11044013649564476,-0.21452175121672531,,,-0.023912677097384764,0.9958172794931962,0.07572002485912332,0.06834614642156997,-0.00792910713008148,0.12244540107117312,0.0870220062979768,
CTUN_ThrOut,0.08904848515288809,0.05179138004515495,0.08648154064820199,-0.011943585563225629,-0.10007694321597606,-0.006743005403161325,-0.1154079299817993,0.14411345256656322,0.07681601946490575,0.37110400318112274,0.09384214829524226,-0.3677113700612321,-0.34131519240543773,0.1359045881349977,0.20282423615584205,0.13393256536081982,0.18453187248477057,0.11670882201516394,0.21156942046325605,0.176928201774931,0.6909414299528603,0.5448843834214039,1.0,0.14440380379010426,0.48013575730433133,0.2352450367262026,0.0712181225455434,0.9272780743972304,0.1417476582552082,-0.3598058606737362,-0.664194717601368,,-0.6168764058365654,-0.2894958836222892,-0.030693354161182372,0.6033584566839408,0.07294721114297686,-0.01850331693461013,-0.08012841040646536,-0.15031847954392413,-0.011591087830353008,0.15083876977980964,0.23319727750830385,0.2728319050807554,-0.005828217794134449,0.1442601065016192,0.13811630694317753,-0.07939439857290934,0.0056715903677447745,0.028537304441330364,0.1694978714646093,-0.11903348652355664,0.01125509586511852,0.032560679678878615,-0.0028433502247779525,0.14423352300008022,-0.08833498984226465,0.18339471368042123,0.2524973894691283,0.14865084319951483,0.23633823765727588,-0.11354865953330581,-0.08398622368363313,0.03709298896059566,-0.12588420090630822,-0.14495839117188394,0.07563186837992815,0.2636061222182846,-0.14429285935038103,0.030195166486964648,0.06324099812436514,0.04542293940576167,0.1786107977555454,-0.024256366243742188,,,,-0.10649667845304593,-0.0009640107514835794,0.08034197805664621,-0.061677886990122284,0.047710383293506,0.005070943385526423,-0.14677967935251696,-0.0916071137185448,-0.2045973259824212,0.04990397468637664,0.08185872544617738,0.0584582495451351,-0.0642395366022759,,,-0.025990771491621996,0.742622849680251,0.02805544604327383,-0.06655642931346023,0.2467149126213759,0.023004678237621316,-0.004136759668785795,
CTUN_TimeMS,0.022280135325090145,0.009678488833068674,-0.2193682133798469,0.06724973947739478,0.04948192740514845,-0.14773846018029801,-0.11154512402695474,0.9999994342626369,-0.20533188993547652,-0.05102358868147122,-0.1308347843748893,0.05321982479873816,-0.34266532004656347,-0.06920508064176598,-0.1423355787705396,-0.06764840007013344,-0.1630323516513683,-0.09206464366410243,-0.03788429461869532,0.2775008482460417,-0.21202462373468034,-0.11977920837116798,0.14440380379010426,1.0,-0.0027019836100242167,0.9831832362918617,0.9968342892986902,0.07498755326823804,0.9999911556998231,-0.05364008974679265,-0.6829676393528675,,0.17684911736235454,,0.011289967316895032,-0.03593848387317165,-0.04584477035208278,-0.07455017748776833,-0.012323280060427332,-0.3711299232660675,-0.12362459057088489,0.03404630963417406,-0.05743622175353307,0.020419354953702343,0.007152144645928869,0.9999987342893817,0.869994670651326,0.11586385883457653,0.03145463759896107,-0.1952047952466334,0.15798010635330928,0.07370414179959257,0.002457103606239444,0.0015088416290938561,-0.003417801506335909,0.9999990675073333,-0.07128126357140607,-0.9241322289977723,-0.12065981209102797,0.4861691561337932,0.5622447737601209,0.30824905530678476,0.10189584161611809,-0.5802490118438317,0.12763281211874292,-0.00980418425345834,-0.45294955510419,-0.6042916293563106,0.39926086221683477,0.9349510743628011,-0.07827863988122101,-0.340520661642943,-0.13153022052942615,0.027394938094764735,,,,-0.26155651405524655,-0.19899117409911649,-0.053367732316344674,0.26924759639911067,0.9440133565467537,0.04101090085106162,-0.14844956229671924,0.038827045236235355,-0.1464664355231572,0.929406482604873,-0.05082582375402831,0.12826833939458906,,,,-0.02968660843672347,-0.09646167858321564,-0.004010376878281728,-0.03982345441767393,0.09464097883687371,0.214760941773078,0.0734947469865206,
CURR_Curr,-0.014045384447696782,0.059581513290645115,0.08500220081120015,0.17080300637124202,0.3199080109875685,0.04463112293596876,0.10210122760143979,-0.002837090379270013,0.0546770026231473,0.14960921890340945,0.2005809214207123,-0.15523547876244873,0.15665392539496878,0.12476130586556282,0.193995312680714,0.12351487015474809,0.3229852445194551,0.09539682645640449,0.2680336869885606,0.18438334059204353,0.6514516724514656,0.5629405514450829,0.48013575730433133,-0.0027019836100242167,1.0,-0.2250495710458381,-0.011471866376966493,0.9371947879346871,-0.002370984919646235,-0.4962020778267126,-0.20388389573002033,,-0.5512474914390486,-0.29737167621994737,-0.01364503023310422,0.5402512402436902,0.09391516603474886,0.03868364624359855,0.039129561932369786,0.17920133060091054,0.010457414335171156,-0.058337449948845335,0.254848540303426,-0.05701310741742759,-0.06735694561779372,-0.002701379556696837,-0.002697714384052169,-0.24291581335738344,,0.09724493511261499,-0.11576059706827856,0.016444820436363035,0.004906815872268431,0.017971530252133657,0.04261935557840144,-0.002827222063628054,0.09550799758303277,-0.9115608841400576,0.0030571985229308277,0.1531787377206693,-0.2660408917686004,-0.10776899559110914,-0.09510822588100587,0.052027704224424626,-0.1192364556614002,-0.12207247179571003,0.09468017783627432,0.22486823711384696,-0.15130778357498903,-0.14144473529355625,0.04312811933915686,0.05835952332795169,0.19958461259428578,-0.027496651665756173,,,,-0.052399724150559004,0.028785581165316088,0.09423088478210848,-0.04536464668328007,-0.1483067667335973,-0.03040950073523487,0.041875297176539504,0.03324142010835149,-0.023950858001131992,-0.14730187493121968,0.12359859024730743,0.021291941658025598,-0.08990377451311886,,,-0.042376502058094644,0.2756981546247274,0.0534101184605522,0.1399928598527831,-0.037574407860875944,0.002012977058438354,-0.012528248978368397,
CURR_CurrTot,0.040325540706034425,0.030012575610437832,-0.1783288327865928,0.03813038990924061,-0.022951538635953724,-0.07546649764142524,-0.013693424263137424,0.9831833406974262,-0.14401178946459148,0.01829242994364272,-0.18822304511190105,-0.009288308489062147,-0.3875742233311344,-0.07393529189834573,-0.06015287537035006,-0.07335929168782253,-0.19864354889740637,-0.11969493101570458,-0.07433928982858215,0.3018418258420692,-0.2036498307618202,-0.16426587643158544,0.2352450367262026,0.9831832362918617,-0.2250495710458381,1.0,0.9999256752029204,0.08491562729591381,0.9831863052461098,-0.04867464041465505,-0.78316636255742,,0.11859668245190216,0.5173637348191785,0.011581479761005103,-0.013218804123387273,-0.1361010836244082,-0.1978010093071265,0.18652079579609843,-0.407462905712739,-0.26931143980213,-0.11411840472612807,-0.027298501227641648,0.05120531429045273,-0.1982413250331619,0.9831796742582191,0.983178383321008,0.15820521066526644,,-0.14906242262695715,0.08262243918078109,0.019954464311988378,-0.003889335796681435,0.011865681243748021,0.01060872140900192,0.9831840783577943,-0.2757465291516643,0.9637482720587311,-0.010680432571394248,0.5103511511868752,0.6615708744786343,0.2989737427223188,-0.019817709731793656,-0.3586564445097056,0.12620305207322313,-0.016910968397216175,-0.48004565051178805,-0.3646865080096223,0.3363727005648254,0.8993090029878175,-0.05515336966335413,-0.38322679765779827,-0.11918240274002655,0.016535373787777374,,,,-0.3520896548346628,-0.3270749787662193,-0.06486280240434128,0.1857561292104041,0.9566810503757661,-0.09286643471873393,-0.031504316746450364,0.09143535883959503,-0.038333071463152374,0.9492767821473823,-0.01468932906331663,0.07415164997431231,0.23337204797304353,,,0.011105795819228506,0.07154882352992306,0.021113360730115188,-0.17513624290638155,0.04754899518478663,0.07751931911586478,0.050346254992875324,
CURR_ThrInt,-0.01661429432281305,0.06348388371239379,-0.22441600631461883,0.12540478831161686,0.1574527254670066,0.016317174988241586,0.060693694361408576,0.9968344783190354,-0.22442433116273877,-0.025369638589259853,-0.1543069005092489,0.024227586139394908,-0.436629041715966,-0.05450869077700131,-0.14911455724376005,-0.05286593821339104,-0.1731497935430706,-0.1042299939955979,-0.021725853767528572,0.2950737030618876,-0.21042501003606132,-0.11954443970688207,0.0712181225455434,0.9968342892986902,-0.011471866376966493,0.9999256752029204,1.0,0.08240555164276132,0.9968370425019123,-0.0548453295078037,-0.6738245193417934,,0.16999991871473566,,0.011729231771296597,-0.035059365581617735,-0.055690739774126766,-0.0725807019074037,0.28035733342731944,-0.42951579731657513,-0.2224025823103057,-0.33996321489990666,-0.05427612727607829,-0.016293545816580903,,0.996829713924514,0.996829655999997,0.15097386307171745,,-0.04974160613820896,0.03194815683978973,0.048395315126212195,0.0015714563738292169,0.01318593639537156,0.013993709126152266,0.9968355047635243,-0.06627153832432299,,-0.12746192927394515,0.5101602422908589,,0.30832651803319716,0.07979168389654741,-0.6013348685672316,0.1562183322096074,-0.04059846606137174,-0.48002715638442045,-0.6091463797904462,0.431702378906828,0.8872820003109539,-0.09333288141833392,-0.35038392954723757,-0.12010382294142223,0.024996983320754073,,,,-0.26609604927436503,-0.2172132095096791,-0.06627175817942188,0.25947649932556593,0.9833474983771353,0.050997807517269345,0.11652937499677374,0.2328833017937638,0.2554910264324016,0.9728806289291883,-0.06542373875451772,0.14670348939256903,,,,-0.03382837318981422,-0.14109725875795834,-0.010629481936163221,-0.30800333415885234,-0.018949754347798595,-0.005805960030310745,-0.1530720437696557,
CURR_ThrOut,-0.07124139572701887,0.07449694295441162,0.05611760493895357,0.1662325274961904,0.2016707348494827,-0.06233416303545002,0.056147197823403015,0.07481131237997354,0.057719653624232224,0.2197060196433931,0.12387476847660085,-0.21975821157123906,-0.2952224969097191,0.15509191229832112,0.11681772556004688,0.1544383250991915,0.1965393483426714,0.1231567795088816,0.19914673571109442,0.18947317568690009,0.6914196914954198,0.635255711091124,0.9272780743972304,0.07498755326823804,0.9371947879346871,0.08491562729591381,0.08240555164276132,1.0,0.07542695324011835,-0.6501049928350955,-0.6984713179048091,,-0.7128360776431812,,-0.029497763000602605,0.6667113567710647,0.15145696265183367,-0.030950625612536413,-0.023142385638220124,0.06024651444553161,0.051239135062019305,0.03480994052881915,0.15441773728411812,0.18881198328599302,,0.07498963724829544,0.07499543977231643,-0.19154683569099024,,-0.025179799401528424,-0.02629717275365726,-0.07650098956015698,-0.003012652812380197,0.02203744171232129,0.05381192691966605,0.07482345617712072,0.06502215979044418,,0.21601511528047262,0.16823181584196215,,-0.2033177683483959,-0.006890979116876046,0.0036150176559423355,-0.19483631851885583,-0.15099899493493,0.1835353983401957,0.2544365139497918,-0.19634151668758357,-0.14653511269838226,0.0868721273019845,0.15081370642955666,0.2203079268982853,-0.04545524104367782,,,,-0.09183804917995053,0.06372097087328889,0.09090319369008677,-0.08020383312642387,-0.21646112321262648,-0.08941674486053204,0.0718997436198822,0.016538224585444967,0.01590093083596504,-0.21089524214273872,0.2175044003382006,0.12794820760562042,,,,-0.0663149235521814,0.6892222865583996,0.15723473928343687,0.16427437000797226,0.018043595018839294,0.011051801757969952,0.03547912986316059,
CURR_TimeMS,0.022620640347499877,0.009830945093815407,-0.2196598747466865,0.07081005885047967,0.05070513055913309,-0.14806037174109607,-0.11170872377615682,0.9999906542971796,-0.20551182862201547,-0.052115959346452724,-0.13095975982014843,0.054304541736554385,-0.34225401233706965,-0.07071641312930471,-0.1426855421199274,-0.06914560369724672,-0.16340258448256995,-0.09351441581766841,-0.03808924688913082,0.2733919670471492,-0.21513286364351683,-0.1241797566844538,0.1417476582552082,0.9999911556998231,-0.002370984919646235,0.9831863052461098,0.9968370425019123,0.07542695324011835,1.0,-0.05383868637067315,-0.683235090313842,,0.17656866829690665,,0.011290086634356182,-0.04303354221857776,-0.04675532778312345,-0.07656751446597407,-0.011762435906708222,-0.37167771569235164,-0.12345922603492254,0.033842268296956426,-0.058527766289841465,0.01960619384574928,-0.0025628881415063775,0.9999922504977862,0.9999922251975398,0.11595845567033107,,-0.1951848054152176,0.15842564658632083,0.07369662794102107,0.0024641661702246138,0.0015090676363472416,-0.003405616645537006,0.9999902644318117,-0.07100970336707699,-0.924129293626738,-0.122488714176343,0.487822139067164,0.5635909537019951,0.3078961344488725,0.10061193241488087,-0.5825245175817516,0.12923197469463496,-0.01056281090664705,-0.4534321290053371,-0.6031780876853062,0.4002451839671551,0.9343822641662854,-0.07774423799704511,-0.340004701934286,-0.13128125359058462,0.027342829210842023,,,,-0.2615573889821197,-0.19897159807385337,-0.05323512486866108,0.2693956025991952,0.9440310151048216,0.04091330358620087,-0.1488721174525508,0.03858631208309637,-0.1471039427750563,0.9294362257065645,-0.0508680440179764,0.12828590098238155,,,,-0.029570717276954445,-0.09905261828982934,-0.004834551273479003,-0.04119853909223552,0.09324214200115044,0.21318774306325258,0.07374793130226466,
CURR_Vcc,0.02112986946200021,0.003351721138896131,-0.04592184190233858,-0.08812726341542566,-0.07175639943753345,-0.021641831089337683,-0.028997304847308596,-0.05355360759634176,-0.038990451516293746,-0.14059515339766646,-0.10949107765375607,0.13936249533587053,-0.022046585466802354,-0.14941053616074312,-0.06047233159516744,-0.14878662361309597,-0.16415583103115075,-0.15373721632222936,-0.10588492229797719,-0.08767362310578167,-0.5006050319875768,-0.3884015235378028,-0.3598058606737362,-0.05364008974679265,-0.4962020778267126,-0.04867464041465505,-0.0548453295078037,-0.6501049928350955,-0.05383868637067315,1.0,0.3599781692241201,,0.32814123611163265,0.05003895597291004,-0.0049656015790232435,-0.34817620048740006,-0.16870263764893267,-0.03829977085687275,0.04446076760346497,-0.0710120685188539,-0.047411413852269435,-0.09975574515690772,-0.15822074935036418,-0.16192214553618992,-0.17091616778972762,-0.05363957785252317,-0.053641324010533155,0.13910306418862137,,-0.05944555862768469,0.014394528896790323,0.024532370058694537,-0.0001584391123819629,-0.01363196125462219,-0.020011905457400458,-0.05356000876471075,-0.051044200556636235,-0.13921153257946484,-0.023366627107611726,-0.20419667890009882,-0.16162403188966298,0.08020205527044118,-0.0482137463260727,-0.0020306614100122355,0.2268778852178608,0.061376004393741496,-0.1350653176134903,-0.07913536880739806,0.17349231915098978,-0.009351792410368645,-0.03978021883442544,-0.1266802935450041,-0.12295763289399508,0.016919573137307502,,,,-0.062631084003644,-0.13424578806558612,-0.08350857522257384,-0.0032358570908641074,0.12990031437085423,0.04810510742407379,-0.04876661335433606,-0.10797419122130025,-0.04360489407498552,0.12393499063333059,-0.10673219214123374,-0.07230730178893982,0.05804701520324841,,,0.036815983134249976,-0.38734411309565714,-0.05377259034312443,-0.14229433086547347,-0.023131741881359722,-0.03226733938791669,-0.06920225062105018,
CURR_Volt,-0.04698192995983301,-0.050352351424835906,0.0688143397747892,-0.08011755288600748,0.0164266602045659,0.032546987985451734,0.006488766762519407,-0.6828561477429653,0.06357078776267384,-0.2954810135764053,0.07383128720483366,0.28840881438155536,0.47811092553970325,-0.10273750816179328,-0.08594334970319618,-0.10194683658966655,0.0021905128536150093,-0.06547819239022952,-0.06575501292225835,-0.40452680237714045,-0.5135629988356181,-0.25399696391568866,-0.664194717601368,-0.6829676393528675,-0.20388389573002033,-0.78316636255742,-0.6738245193417934,-0.6984713179048091,-0.683235090313842,0.3599781692241201,1.0,,0.32600268551839023,0.10426059208898174,0.006192653948780962,-0.4275141472959996,0.023714951028123883,0.17738926432165783,-0.10005002492703785,0.297714895323239,0.2121997928007876,-0.00672205758214426,-0.20715507421326196,-0.2016585667526265,0.21272779616155746,-0.6829628489233485,-0.6829655883924586,-0.0443843101319108,,0.08304484184934596,-0.07483006907210311,0.0065701977954674105,0.004842235829925162,-0.025392739146676224,-0.021396399150131182,-0.682864425331999,0.21520702723806615,-0.931918118684265,-0.18398515772081328,-0.4416722145855322,-0.5812198159867437,-0.009521363247011722,0.09245697759705494,0.044744249338087135,0.14701329149006437,0.08873956914781475,0.01247323839986171,-0.1460602909044307,0.0833008253218564,-0.24610321389100098,-0.07128789154610687,0.03045304364286813,-0.10087534090255942,0.014035574608160004,,,,0.3912897977886483,0.20119427500749082,-0.07984802856185738,-0.010369923718139148,-0.5659983344186144,0.09626269113221908,0.057697883518871854,-0.01968989242745004,0.11960424310093705,-0.556015010399796,-0.09099169808308064,-0.07390175923180123,-0.09712217038535566,,,0.0018530646084367886,-0.45944539339917967,-0.0435383745667956,0.10081591967997801,-0.1271041020459234,-0.09028438248511587,-0.03595344735039519,
DU32_Id,,,,,,,,,,,,,,,,,,,,,,,,,,,,,,,,,,,,,,,,,,,,,,,,,,,,,,,,,,,,,,,,,,,,,,,,,,,,,,,,,,,,,,,,,,,,,,,,,,,,
DU32_Value,0.025197239292113278,-0.06928765417688582,-0.11597040396556087,-0.10907321592179436,-0.17092893298400944,0.022955368644764725,-0.046461809778353395,0.17710858934859447,-0.11654882624378375,-0.09970144215598067,-0.13986181145217444,0.09968265436606796,0.06193473474000941,-0.09555040530720502,-0.07140210067441373,-0.09495923923493939,-0.13224623506400113,-0.0930586236959297,-0.1677362272254818,-0.06074250744072718,-0.6403658191866417,-0.5899501911187843,-0.6168764058365654,0.17684911736235454,-0.5512474914390486,0.11859668245190216,0.16999991871473566,-0.7128360776431812,0.17656866829690665,0.32814123611163265,0.32600268551839023,,1.0,0.061149633627383806,0.010607256027200605,-0.643345855842588,-0.04478922023292927,-0.06353603555998082,0.04999975930913768,-0.17990094770235013,-0.11293790663776596,-0.0679338287832082,-0.06357719033612724,-0.2075706067000386,0.04897868445529003,0.17690781411133666,0.17689809090845643,0.12068157440074993,,0.03133958266917632,0.05532206585024683,0.015106740530599534,0.006470690227508289,-0.016974616105411844,-0.007109764259367884,0.17708986627603535,-0.05281012755875377,,-0.29854626693654274,0.06990777188797224,,0.07172473180925033,0.03003014401558924,-0.29433084997052417,0.22242622993764122,-0.003392268711131352,-0.22957150402352464,-0.1469061430092536,0.16764190316044553,0.2452645053858836,0.11552480987933669,-0.1900851404263025,-0.1633634807440077,0.022411529763162453,,,,0.050072577214210844,-0.045327628174849,-0.07161747425719722,0.09652992542864047,0.20753356410933543,0.032393874947911606,-0.036251525199641005,0.007482564472531331,0.01718102245339376,0.1978885932089188,-0.15172922034367747,-0.04625843128705075,0.2784953899751443,,,0.045366644232256365,-0.6424083347188669,-0.09763730105787911,-0.0319404245721457,-0.011351362364607775,-0.09875408685941789,-0.05387987653610066,
ERR_ECode,0.16137919757992383,-0.28903458857289543,-0.3828817541874374,-0.2275537175117484,0.21276404306151492,0.1637178949742242,-0.2938046456616455,,-0.38675682810603607,-0.6408806821286002,-0.3868330152582832,0.6407244965359227,0.21049902723710634,-0.644697764469845,-0.28618746893204206,-0.6408641955683779,-0.5838109780108213,-0.6498822808129849,-0.5835343697991863,,,-0.44938494352342084,-0.2894958836222892,,-0.29737167621994737,0.5173637348191785,,,,0.05003895597291004,0.10426059208898174,,0.061149633627383806,1.0,,-0.10093551115057543,,,3.6383432233334545e-13,,,,,,,,,,,0.27260745803331043,0.2053758578386103,-0.09057970422584134,-0.024837319299408418,0.006509966533175933,-0.015522055108252795,,0.05064655436117764,,,,,-0.28655347734954295,0.29037963783361276,0.09016015723798933,-0.5002239115762664,0.025990753623401558,0.26346268374461945,0.09011189627402638,-0.5107925244108517,,0.024177163406290177,0.2599500227155756,,1.0546606868427325e-13,,,,0.044558747049969656,-0.0840487369626768,,0.4592387897495649,0.5468561496523493,-0.13938622076576335,0.5648118974792926,0.2520211580225589,0.45406090555809026,0.5286754827878611,0.1408214867412854,-0.22080586801978452,0.5026860541022805,,,-0.1382189874728253,-0.46580116169635155,-0.06577595071516797,,-0.12764974578246885,,,
ERR_Subsys,0.03393754327110882,-0.034354880726676,-0.005040426588366513,-0.003715638950511643,-0.005066301345422052,0.02763863484969203,-0.045787575188311655,0.011291646695536795,-0.004269692034601814,-0.0063859732089268,0.0018287252943798864,0.00639779478052284,-0.003981030116547175,-0.0064387721247096685,-0.027405593362400168,-0.00638587617781632,0.00023862109270500028,-0.006037521950672039,-0.00868602968591708,,,-0.00874906283330127,-0.030693354161182372,0.011289967316895032,-0.01364503023310422,0.011581479761005103,0.011729231771296597,-0.029497763000602605,0.011290086634356182,-0.0049656015790232435,0.006192653948780962,,0.010607256027200605,,1.0,,-0.006005647686232695,-0.001766998421133908,0.003878384044182149,0.01667476355326913,0.004976749621175996,-0.0059933649241717055,-0.006442713174755456,-0.006587242673071104,,0.011303409113551799,0.011304922603405263,-0.00043899805975166294,,0.029939392486080196,0.04781709669296395,0.04736566987366069,-0.00024331883815792053,-0.0016902530737056866,9.391353999862209e-05,0.011295464206733342,-0.047435726945140484,,-0.0011359758065674164,0.0006855738845951561,,0.01696328429021985,-0.06434591454528438,0.04351244180694325,0.04571022411552774,0.015537044981788253,-0.06276154168503498,0.016428904057968517,0.0050683786551994885,0.0112618243329263,-0.0014678436410739723,0.0007842596197081966,,,,,,0.009903592812010135,0.007320089043091163,,,,-0.0021916894177124884,0.007536524282739829,,,,,-0.04119359770117454,,,,0.03310117387329315,-0.008266925434145306,-0.04981087476064961,0.0009205243339776113,-0.00011543678535905726,-0.0007936050037090646,0.00035590714095599767,
EV_Id,-0.0326413061623282,0.011276937352796196,0.0584729214422937,0.13457224342980012,0.12194466553922283,-0.0060857433605594645,-0.005568947463346621,-0.03658412320978846,0.058792757183398624,0.23854607878434686,-0.007743660518307128,-0.2386206481593682,-0.20374315074353883,0.16532557578043217,0.05576117638628682,0.16483266068023608,-0.001971198995751713,0.15778270559919977,0.04925817358261371,0.1121517324696198,0.6646002062098588,0.48578623636133855,0.6033584566839408,-0.03593848387317165,0.5402512402436902,-0.013218804123387273,-0.035059365581617735,0.6667113567710647,-0.04303354221857776,-0.34817620048740006,-0.4275141472959996,,-0.643345855842588,-0.10093551115057543,,1.0,0.114628516190501,-0.00433816416616693,0.004116837010449112,0.062393760076314496,0.09936761436496644,-0.014120148292758738,0.14695315024151612,0.14412579697816144,-0.039884620021483824,-0.03613266209701943,-0.03609273048877268,0.0064766460989370694,,-0.013500219188049566,0.0052419015769130314,0.006007452646723431,-0.002806903675497859,0.018769688905398797,0.017038018721608927,-0.036214392619805524,0.05789223621002426,,0.41238652119311603,0.28564874735556445,,-0.03432375446645569,0.00475367274969906,0.0023201805010350657,-0.07747948290581236,0.024971759204702286,0.08525364399029148,0.051898887246973294,-0.06817508639659851,-0.052286859652574326,0.06025313647380605,0.04798825954051325,0.24553555727374993,-0.03374837737148879,,,,-0.04634640304264646,0.07349489443311856,0.07927954508380954,-0.08448034953635757,-0.2010821229853519,-0.04033756050908084,-0.0089445223148674,0.0019075597084746466,-0.012440398064051806,-0.19161035897062742,0.17595759423971719,0.03540491112491492,-0.2980013138202316,,,-0.013887910459909312,0.5580713266067183,0.04247275060600281,0.05999050452481239,0.006736869859364297,0.05096273191941597,0.05579882622050883,
GPS_Alt,-0.18280689254353383,-0.060907160462331376,-0.02796408604121271,0.016038148373777403,-0.1498237005301708,0.01780018754338413,-0.004563838478869437,-0.045859091752325686,0.01603909284279604,0.6753820560520022,0.025747783937489634,-0.6780115181901513,-0.13493476902881438,0.8364761729592564,-0.027309891733652357,0.8375645708011215,0.007779000646302578,0.5853494177881997,0.0024540669567732947,0.2966897869925392,0.4276224294621845,0.04163237986754607,0.07294721114297686,-0.04584477035208278,0.09391516603474886,-0.1361010836244082,-0.055690739774126766,0.15145696265183367,-0.04675532778312345,-0.16870263764893267,0.023714951028123883,,-0.04478922023292927,,-0.006005647686232695,0.114628516190501,1.0,0.06963386594790992,-0.04473535938486013,0.17369086208763007,0.009431936552295215,0.12624734318937045,0.8589097981636942,0.28499741161724435,0.03606377883599565,-0.04579583758261995,-0.06930771417853206,-0.12012429635195898,0.009562898880502498,0.04053193938630267,0.01836325074680769,-0.029012594579113947,-0.010030389737941991,-0.0001896035831922202,0.008094929424587519,-0.045826124027678265,0.3210898798881257,-0.04146603083252426,0.0019293559763301604,0.1437747375016625,-0.09806259546177849,-0.11164475500376986,0.13322995038987867,-0.14677060609920128,-0.23673322428084825,-0.14677272541930575,0.3099937001974228,0.023759880795158686,-0.3510116460827827,-0.13585419251133005,0.048473398417754,0.23882550159981716,0.04339360033291951,-0.008701738097198153,,,,0.10288711198906772,0.2080288384593647,0.03399750938853208,-0.3924433351139999,-0.18302917701746657,-0.09275906390540582,-0.24714977472246805,-0.04115530259750557,-0.2723453030492347,-0.1879967035751352,0.02804540453298639,0.020107153066837184,-0.16064724562895966,,,0.02760074069971381,0.10151227058596635,-0.009907623551612883,0.11592108925005916,0.056893081821975465,0.013747327005990167,0.06905064540559502,
GPS_GCrs,0.009310383858892159,-0.021551421319572304,0.21620326633872988,-0.06305098729620062,-0.05844250007493019,0.04517582150707549,-0.01356149424462802,-0.0745443565422524,0.43602938865991697,0.046925822813351004,0.00898667190991654,-0.04708526980526056,0.10853906532597708,-0.10373357448547763,-0.03039621862383462,-0.10164029547971065,-0.06100642128670686,-0.020617575237191446,0.015410051717963924,0.08460883474305861,-0.05481051709145444,0.011265249301876718,-0.01850331693461013,-0.07455017748776833,0.03868364624359855,-0.1978010093071265,-0.0725807019074037,-0.030950625612536413,-0.07656751446597407,-0.03829977085687275,0.17738926432165783,,-0.06353603555998082,,-0.001766998421133908,-0.00433816416616693,0.06963386594790992,1.0,-0.04510354241986815,0.06364384401055587,0.08169465989207418,0.05546890366191441,-0.054799234831695916,0.019930175223294343,0.2793792684638365,-0.07447083789707934,-0.06028157083419066,0.026162410458816558,0.05017619402855342,0.07340509040229412,0.03499115847598352,-0.046692454981672196,-0.0032006576637504955,-0.020514789516492615,0.009228717575571005,-0.07446534085728858,0.23450413720635943,-0.022693133048136083,0.020672877664104004,-0.17811005061579754,-0.06079233296375439,-0.005857157406764887,0.05128370524557781,-0.04511775080311729,0.2242431923255046,0.03391777895140953,-0.2525171332131613,-0.16481102935842404,0.2613662322535133,0.08659767750139952,-0.009588183661064717,-0.25569621235988355,-0.01692285684209092,0.0047433851975034825,,,,0.0890564536338102,0.1472099505877302,-0.09737893583402854,7.778978708016897e-05,-0.17121007977311567,0.026959464751404816,0.047363682792467,0.12104760575664734,0.11534509101014863,-0.16003734803989067,0.014500365859013447,-0.02298659295954735,-0.1411993010141323,,,0.0011023858068990931,0.0014335699506753516,-0.0034910847402827997,-0.016716070197427546,0.08162945347483998,-0.007186827929841149,-0.06319694007938853,
GPS_HDop,0.03572942303524249,0.037227768417512325,-0.09382339131233754,0.10048615030243373,0.20786566911942503,0.041938127031334864,0.10026301954727615,-0.012492937771777844,-0.03938183392362027,-0.04677185690386679,-0.018775046847399158,0.04510530399078366,0.14244088281872777,0.04267444944826297,-0.028147805545278654,0.04276266700196235,-0.05216835990381091,-0.04132018346798812,0.011994815366506439,0.2422626955108169,-0.1052042624835018,-0.10004547243467894,-0.08012841040646536,-0.012323280060427332,0.039129561932369786,0.18652079579609843,0.28035733342731944,-0.023142385638220124,-0.011762435906708222,0.04446076760346497,-0.10005002492703785,,0.04999975930913768,3.6383432233334545e-13,0.003878384044182149,0.004116837010449112,-0.04473535938486013,-0.04510354241986815,1.0,-0.0320856794984679,-0.17820956650764985,-0.7675734545740025,-0.00115969201274539,-0.15172531765239897,-0.8217418883236377,-0.012463424455390061,-0.04308652812649681,-0.0689071187261417,-0.3255614997932119,0.026983646449623234,-0.09966736132604162,0.05129036950641628,-0.00011890192960194931,0.0028691014012121006,0.023011967458946226,-0.012468383448340744,-0.1056510344864355,0.11871575048323652,-0.049950078718773515,0.15035977010760143,-0.11588509615589701,0.22112671901869219,-0.049767399902397425,-0.0032171205526528406,0.08766523322266416,0.18082092664428775,-0.2290765111291633,-0.09976233179251488,0.15292532066687245,-0.022022857279120043,0.052587791175103364,-0.24057847910754596,-0.07309706330945255,0.012621181629236871,,,,-0.23621909686046658,-0.2073826702175232,-0.08490894224445247,-0.07780162136893769,0.04623362974989345,-0.05168032001457978,0.015188354663893677,-0.09608330912596037,-0.023081366540555783,0.02654726107094153,0.0028620641347704883,0.0008302886804816556,0.1372185040272547,,,-0.0038980289723409933,-0.20228303163879552,0.027092443432608526,-0.015910040025787046,-0.11281383371091169,-0.016329052274619168,0.005727580656260837,
GPS_Lat,0.009341562727106865,-0.00301780149997787,0.1730816955536037,0.03811868119183834,0.06012784542118225,0.052160879509260474,0.027160075442833755,-0.39124912322497546,-0.01332179694671586,-0.025605602791278485,0.06954781542715137,0.02194385497659161,0.2490240028753593,0.24861324690581946,-0.030372254508643236,0.24974585538085084,0.06520950408838808,0.14859858398851777,0.02114812019414553,0.24916522777529587,0.48181087688445046,0.07501120467423697,-0.15031847954392413,-0.3711299232660675,0.17920133060091054,-0.407462905712739,-0.42951579731657513,0.06024651444553161,-0.37167771569235164,-0.0710120685188539,0.297714895323239,,-0.17990094770235013,,0.01667476355326913,0.062393760076314496,0.17369086208763007,0.06364384401055587,-0.0320856794984679,1.0,0.3867333386065166,-0.009557601205652674,0.19264368137182394,0.014206634864933062,0.3075426322316903,-0.3911935612853497,-0.35881664804751284,-0.03230809045404197,0.23566169647932797,0.06130152802467048,-0.06768847616167954,0.05746157217149458,-0.0051730093234249866,-0.011233509568156618,0.01078667946815186,-0.39121851689536663,0.1067804917371225,-0.10763569418392292,-0.023072821586935043,-0.32539337711295124,-0.20560610447864866,-0.3205103734593013,-0.13230595187745872,0.21193510164842622,-0.0028331897105055848,-0.2337260124734719,0.18497257151366256,0.4313409344644674,-0.10065815075817744,-0.40259157193119743,-0.04587709278904881,0.3087970076496673,0.010480349375492071,-0.0012525862034931065,,,,0.11624426300916839,0.25466308449290026,0.04364248861541273,-0.37443012962604677,-0.3870465300047888,-0.06196802685340642,-0.23707252859363132,-0.19457809877489274,-0.3240538957152066,-0.4051233215649104,0.001036175992611735,0.03340382768699824,-0.13715559904925487,,,0.08728341924436987,-0.07806703410483193,0.03188013242762362,0.19671449951961922,-0.10786692718676956,-0.0834919105074204,-0.007647657833558114,
GPS_Lng,0.08948932199904755,0.03155622690845587,0.12811003292306739,-0.09033704846764556,-0.05709594261831611,-0.044373008760429884,-0.07921523807566969,-0.09516788015141597,0.08542283947999614,-0.04485759358620304,0.06581525832390504,0.04885663364235721,-0.07418247401156373,0.06254135972353927,-0.0005741270174371204,0.0621874323312789,0.05251899707704435,0.07805146049908014,-0.03958480864142925,0.07986256519361715,0.327878461271821,0.08219043421605945,-0.011591087830353008,-0.12362459057088489,0.010457414335171156,-0.26931143980213,-0.2224025823103057,0.051239135062019305,-0.12345922603492254,-0.047411413852269435,0.2121997928007876,,-0.11293790663776596,,0.004976749621175996,0.09936761436496644,0.009431936552295215,0.08169465989207418,-0.17820956650764985,0.3867333386065166,1.0,0.1735003495149004,-0.02508858452843892,0.12840998489526587,0.5199595919446205,-0.09513190962378086,-0.06272841642515105,-0.01930340432677268,0.23565084486594243,-0.055926276431857255,0.048449615276419014,-0.023295889252245378,-0.0008366172826212263,0.027438556096358237,-0.009987322282744873,-0.09515533380414276,0.06575180185972279,-0.027112539994426976,0.04786888223243666,-0.019620548894710793,0.09982547142564888,-0.3061729557651053,0.24208379127836643,-0.07028952298798874,0.23898103818262964,0.10268487568327248,-0.11606788887273117,0.02050602808946407,0.3646253994554425,0.09979386980779625,0.1863099765478835,-0.12182208804891999,0.03279922514419296,-0.004651193167712553,,,,0.1697503665965956,0.23581464389121254,0.08492302241522008,-0.14505565808271434,-0.1436656056469299,0.0500792774151105,0.08599925876988657,-0.09992885198237476,0.07416164416105459,-0.14036375691569128,0.0042250537224974806,-0.07997029754154424,-0.1371761444002503,,,0.046800249542252426,0.0651269707284014,-0.022630204962147026,0.07094359592872942,-0.05521957249960767,-0.1563027414827919,0.02059835598948869,
GPS_NSats,-0.048526386273218924,-0.03890486136786707,0.09698550551252924,-0.14470207028776974,-0.2630893499342781,-0.04120089685788307,-0.10360393108856776,0.03404081526889556,0.05466880726797594,0.1837564002742013,0.021722927471954884,-0.17845571986717482,-0.09109655005745365,0.0018049218659241194,0.03258349814419388,0.001374466135050778,0.06000033973993994,0.08812355967641997,0.00645044204024392,-0.2330396806800078,0.13655832079496089,0.10441674502249039,0.15083876977980964,0.03404630963417406,-0.058337449948845335,-0.11411840472612807,-0.33996321489990666,0.03480994052881915,0.033842268296956426,-0.09975574515690772,-0.00672205758214426,,-0.0679338287832082,,-0.0059933649241717055,-0.014120148292758738,0.12624734318937045,0.05546890366191441,-0.7675734545740025,-0.009557601205652674,0.1735003495149004,1.0,0.1311914881792956,0.2451840792834584,0.5976723929867042,0.03401139755505193,-0.0411606252203106,0.03694870344694122,0.11219692732631367,-0.01251981736215108,0.1021530943126135,-0.11896818038658072,0.002861749062817258,0.0004603994536134828,-0.015434066772763105,0.03401638168865194,0.1244594551929673,0.0007775057322384551,0.08164258113586534,-0.25866431799583944,0.2825571611668446,-0.188118558123519,0.0409196975922945,0.01966708060595978,-0.0879873381643609,-0.15437720191610912,0.24517161350155728,0.08533430969099987,-0.17692016606940297,0.07880159284789287,-0.04980705045606137,0.25700917900447706,0.11712828556448789,-0.020087790928200757,,,,0.21003920492240646,0.23809681299390034,0.08299158197368131,0.031193646719729486,-0.05699030147679213,0.00043607382654744863,-0.03058621806502933,0.13999403712009104,0.014380857103842673,-0.03379993114926024,0.01700721910404606,-0.0003293701459698042,-0.14232515767216478,,,0.03331585027432103,0.29041607725612373,-0.04728021489391419,0.02276459724611638,0.12968554181363093,0.09556260703950299,0.06726229637598978,
GPS_RelAlt,-0.11479365822209948,-0.03824054845206193,-0.0421418788286639,-0.018171321058885918,-0.06067039991983853,0.11213329751632974,-0.025347492138646354,-0.057452601018872874,-0.015789576011703825,0.9459218859806433,-0.014438209612607918,-0.945662083223643,-0.22254979626674212,0.9999867358484289,0.04187445381574146,0.9995968141342301,-0.008927976155605345,0.683141415629305,-0.011724850003378466,0.29394866900356975,0.4291669300410429,0.004623388013146183,0.23319727750830385,-0.05743622175353307,0.254848540303426,-0.027298501227641648,-0.05427612727607829,0.15441773728411812,-0.058527766289841465,-0.15822074935036418,-0.20715507421326196,,-0.06357719033612724,,-0.006442713174755456,0.14695315024151612,0.8589097981636942,-0.054799234831695916,-0.00115969201274539,0.19264368137182394,-0.02508858452843892,0.1311914881792956,1.0,0.21911615159659523,0.023047851020750784,-0.057390323083222526,-0.06006345589904812,-0.0064240393490831455,0.0058387231267048876,0.10485650537820712,0.07944261697346264,-0.10633043012406178,0.008474044244301926,0.012127847397525798,0.026575311889438857,-0.05741860223417209,0.18953179477138898,-0.04753374201049389,0.14833651723335345,0.14458619125177147,0.05442172900167622,-0.0493250643039996,0.058742520651726464,-0.02883375718528003,-0.30613158657089223,-0.16577457960823028,0.302940249689782,0.1761587353006281,-0.4448967709871717,-0.15881794648539407,0.07123339340866076,0.2124915906375319,0.06447506276292883,-0.013339415249683979,,,,-0.07151572910164078,0.028803331598246912,0.029971308625017387,-0.5911858263147685,-0.14021978867151272,-0.06826069927831445,-0.295586908381801,-0.09528764378729453,-0.35597261445244677,-0.1490900647933351,0.043067929476227944,-0.03437923327085082,,,,0.15508852055565403,0.2536729095246028,0.05284878305481053,0.016351341780741407,0.04250693205760532,0.018279590832708352,-0.013711104813305626,
GPS_Spd,-0.2744997020898726,-0.023510585488376562,0.19258022506066724,-0.019193059977379395,-0.0703675601456617,-0.15506552466706183,-0.07965620540154664,0.020392573220727246,0.08213620874813023,0.29853523280527183,0.0007511182899913765,-0.29580294413091013,-0.2850786687593995,0.03015369592010536,0.04326864057734819,0.029902439424428773,0.002591517469213847,0.13777690789039748,-0.020718810188854755,0.06321240448988172,0.48439963775956274,0.15195004970141385,0.2728319050807554,0.020419354953702343,-0.05701310741742759,0.05120531429045273,-0.016293545816580903,0.18881198328599302,0.01960619384574928,-0.16192214553618992,-0.2016585667526265,,-0.2075706067000386,,-0.006587242673071104,0.14412579697816144,0.28499741161724435,0.019930175223294343,-0.15172531765239897,0.014206634864933062,0.12840998489526587,0.2451840792834584,0.21911615159659523,1.0,0.14245486821280645,0.020460699795962038,0.007597513993594011,-0.08800511946926273,0.0038551269567318525,-0.14384442380373824,0.08846821909364262,-0.1660500585299888,-0.021096812952373867,0.08868172751804262,-0.022648639469080023,0.020424593561278567,-0.011137516077989264,0.24118075555252488,0.2002615995318548,-0.04487083840432393,0.11884458211005752,-0.062247822196316194,0.02117668089014875,0.00010711563619342224,-0.38860853730172934,-0.011610502809777809,0.3868033968704442,-0.05804673938202802,-0.24045165361282586,-0.002189611541195661,-0.08798623967050828,0.3600886752684922,0.04111680270812075,-0.009077938327099641,,,,0.04791143111842296,0.29623730778931556,0.1550332663619178,-0.08851562615749625,-0.15004510282744515,0.0067370632263302754,-0.2048302043156832,0.1527761038298846,-0.10326322974690055,-0.12163583391011047,0.05564492676558235,0.02100682256762861,-0.16490575550381284,,,-0.20368878715204225,0.3533908557947713,-0.01073485095041952,0.05768233411102885,0.14962496768833491,0.035326707542191645,0.005265148791323335,
GPS_Status,-0.03667810652611309,-0.08183308927218157,0.03776705424212881,-0.26666549721310595,-0.3651333681624578,-0.20634670094922422,-0.25040552394399734,0.01036095848319381,0.12104340586871636,0.0980581913141705,0.10324998705803808,-0.08941477300254276,-0.009182052444533165,0.11413320479380076,-0.2980859739459051,0.11781688444591505,0.1612503698848156,0.12474988409060095,0.15345168474152093,,,0.26989747461147356,-0.005828217794134449,0.007152144645928869,-0.06735694561779372,-0.1982413250331619,,,-0.0025628881415063775,-0.17091616778972762,0.21272779616155746,,0.04897868445529003,,,-0.039884620021483824,0.03606377883599565,0.2793792684638365,-0.8217418883236377,0.3075426322316903,0.5199595919446205,0.5976723929867042,0.023047851020750784,0.14245486821280645,1.0,0.01036291772424413,0.3504044402654098,0.24784462112017233,0.3509694248520238,-0.17350142758177364,0.2764714881916071,-0.17969666103338508,0.02865578811953941,0.005788268649908525,-0.03536060649702138,0.010360956805866264,0.1875609215858486,0.284857429989599,0.0808567212857763,,0.11068392307797575,-0.2284665662620116,0.3008423674608512,-0.44416749829390534,-0.15892920129815488,-0.06583524127111039,0.399913215199732,-0.43801363186970166,-0.17601715539935425,0.00691892593804942,-0.06660431315641717,0.39982222025402453,-0.02841137477025128,0.0018785255709378372,,,,0.8006373506898924,0.914905424420059,,0.020607232616290248,-0.4543439601200106,0.042905733466232734,-0.004931751882793418,0.10735089734107453,0.055460480935249384,-0.4509243180898573,-0.03517776370025006,0.027601096487763214,-0.13715750067959434,,,0.026548545489034254,0.1915245965645175,-0.0051972645854824985,-0.055206332335547004,-0.04335056437274507,0.008926041494756795,-0.030913290903503962,
GPS_T,0.022302546997163244,0.009679065443036134,-0.21937757071137193,0.06673835039956949,0.04905181968278039,-0.14772081323663142,-0.11154099961656413,0.9999982436599119,-0.2053098719448312,-0.05113232044652477,-0.13086221377959123,0.05332870740648125,-0.34258079786766743,-0.06930807203267716,-0.14238126252862165,-0.06774873640551204,-0.1630457877215562,-0.09216596856993124,-0.03795645753468595,0.277191533328961,-0.2122967308787687,-0.12004046201037613,0.1442601065016192,0.9999987342893817,-0.002701379556696837,0.9831796742582191,0.996829713924514,0.07498963724829544,0.9999922504977862,-0.05363957785252317,-0.6829628489233485,,0.17690781411133666,,0.011303409113551799,-0.03613266209701943,-0.04579583758261995,-0.07447083789707934,-0.012463424455390061,-0.3911935612853497,-0.09513190962378086,0.03401139755505193,-0.057390323083222526,0.020460699795962038,0.01036291772424413,1.0,0.8695609247921173,0.1158639324962557,0.03654664679895537,-0.1952105650751464,0.15797225255236577,0.07370936044060579,0.0024576720137493686,0.0015048239007437478,-0.003419965151182487,0.9999978577728427,-0.07127031450471513,-0.9241272660909182,-0.12066823403892998,0.4863146770872345,0.5621503011898866,0.308288855550646,0.1018422797639597,-0.5801148687907195,0.12749142729764948,-0.009846597856156677,-0.4529474902838129,-0.6042522048168246,0.39916054924723676,0.9349358783532327,-0.07839541849450482,-0.3404671012711759,-0.13152414251808817,0.027393611355651038,,,,-0.26155956340371816,-0.19897218870757735,-0.053348287715030834,0.2692114594840456,0.9440048088839885,0.04099430359177197,-0.1484271555888889,0.03883801621014931,-0.14643974452594197,0.9293979720382367,-0.050836429267174965,0.12827653070420797,,,,-0.029679783638298634,-0.09639853124589806,-0.0041661516375579855,-0.03979842733914478,0.09463952081080097,0.21476135900778942,0.07352920646060536,
GPS_TimeMS,0.02100951536824633,0.020163674187772856,-0.2193624537817085,-0.00021173555507213634,0.012413546726454582,-0.09526759081337664,-0.11111869949369314,0.8695586802638369,-0.16399654577468933,-0.04660115485264386,-0.1304391642528243,0.04622678621205221,-0.4838606950720807,-0.06930741641597023,-0.1423773850735594,-0.06774824729193096,-0.16303883285562065,-0.0921565003170304,-0.03795653613112218,0.27723948417294375,-0.21226684380281624,-0.1200169420278288,0.13811630694317753,0.869994670651326,-0.002697714384052169,0.983178383321008,0.996829655999997,0.07499543977231643,0.9999922251975398,-0.053641324010533155,-0.6829655883924586,,0.17689809090845643,,0.011304922603405263,-0.03609273048877268,-0.06930771417853206,-0.06028157083419066,-0.04308652812649681,-0.35881664804751284,-0.06272841642515105,-0.0411606252203106,-0.06006345589904812,0.007597513993594011,0.3504044402654098,0.8695609247921173,1.0,0.12545504983240321,0.9987260620027155,-0.14753251046001462,0.16678692853246097,0.043811255684435876,0.004861341422180823,0.0016994418300717296,-0.009509087057885791,0.8695582908770046,-0.04513085673652358,-0.9241235373727307,-0.01541531473024774,0.48630648280934696,0.3336830118680714,0.30831139949628056,0.10184961956554799,-0.58024328635401,0.12762799670548383,-0.009737657724538126,-0.4530266351971766,-0.6043197862217319,0.3992324676944947,0.7833216813880214,-0.07828423591572091,-0.3405329076059704,-0.1315229905611287,0.027393325926786338,,,,-0.2615549108932426,-0.19896910059224399,-0.05334243322771569,0.2692217996498501,0.7896461148475838,0.10949537870555798,-0.08658497866093189,0.0055121304453473186,-0.06800850776161921,0.7758986958471723,-0.06224274793398804,0.11163392427886808,,,,-0.03499031051646449,-0.10722456355494595,-0.005028123114524795,-0.20008432085132652,0.013040593179517734,0.041428516189373155,-0.10122800282565855,
GPS_VZ,-0.08143973765401599,-0.01540502829443765,0.05390282177979303,-0.022007974641734568,-0.017971434636730736,-0.16265844126429807,-0.04124265299390032,0.11586830023165098,0.028459295636819766,0.04104027123255896,-0.6332859737684057,-0.040020023342002296,-0.20260361967163326,0.05718222138668363,0.003622243868667235,0.06358022072553704,-0.8892526089801084,0.10512821744749719,-0.5028899083945078,-0.10781751259259038,0.025834410473805386,-0.44408760239171186,-0.07939439857290934,0.11586385883457653,-0.24291581335738344,0.15820521066526644,0.15097386307171745,-0.19154683569099024,0.11595845567033107,0.13910306418862137,-0.0443843101319108,,0.12068157440074993,,-0.00043899805975166294,0.0064766460989370694,-0.12012429635195898,0.026162410458816558,-0.0689071187261417,-0.03230809045404197,-0.01930340432677268,0.03694870344694122,-0.0064240393490831455,-0.08800511946926273,0.24784462112017233,0.1158639324962557,0.12545504983240321,1.0,-0.0009993542249227762,-0.10615395060151785,0.08182255353012975,-0.03990676620336401,0.016099138019790262,-0.0026442941156868947,-0.027582059564688576,0.11586442660430153,-0.035561054838158655,0.028635576532689208,0.02666372486260809,-0.022881657352933384,0.05068813712086577,0.09810807127240165,0.02944157966167195,-0.18279906037048504,0.19186599908343022,-0.009936726876098055,-0.19490875013498635,-0.17297439974333162,0.27733788530208886,0.22577159396968094,0.015677599900130262,-0.1401493429273326,-0.006911006003460779,0.0010889880129396454,,,,-0.1840175887492842,-0.04635147355584072,-0.05582308363114759,-0.046128200263081565,0.1330928774600536,0.05338935770547113,-0.097590627664949,0.02700148368582604,0.011421884787705385,0.14281391866177828,0.018229404004769603,-0.030023687707359588,0.010819928102258842,,,-0.027764413043071322,-0.22205345184533867,-0.009408649365017242,-0.015265661708192704,0.011637006448741355,-0.012368727743661947,-0.05749748725706755,
GPS_Week,-0.017169923122952173,-0.0034605750363492036,,-0.1813508371797841,-0.20899612472999424,0.01206617213469598,0.0001441966441967113,0.03654314431703625,-0.006386835345537532,0.004676014425804587,0.0005917066597466707,-0.0038509718336999844,0.049735290134604655,,,,,,,,,,0.0056715903677447745,0.03145463759896107,,,,,,,,,,,,,0.009562898880502498,0.05017619402855342,-0.3255614997932119,0.23566169647932797,0.23565084486594243,0.11219692732631367,0.0058387231267048876,0.0038551269567318525,0.3509694248520238,0.03654664679895537,0.9987260620027155,-0.0009993542249227762,1.0,-0.007258746516058196,-0.0037952582048131566,0.007096434292912704,-0.00043110496531040217,-0.0003692150334762503,0.001921940531965721,0.03654314022756325,-0.006664181802452234,,0.02145256668455462,,0.10992255046305795,,,,,,,,,0.03105920522060261,,,,,,,,,,,,0.013526085706367753,-0.017522922648733553,0.00917692649058844,0.005485847302471116,0.013884864165330963,0.013415932939895046,-0.007594394989631818,0.00242553632706685,,,,-0.0010808975580899169,0.005793117249106988,0.0028109183305467566,0.023702775153845352,0.03289225044566011,0.04168404278499846,0.011005457388080153,
IMU_AccX,0.28568815259831,-0.03164864453184991,-0.18611743100716135,0.08862461384636347,0.04720203049239363,0.5993815280482807,0.10201390539128037,-0.1951914823939822,-0.07683218289286023,0.026658228582440685,0.09707268781595807,-0.030786840274988705,0.17273322496158167,-0.05189151498479344,-0.012635171804595535,-0.0535650882346436,0.006422460868456626,-0.08204095495223798,-0.03620359240601945,0.0186006916382618,0.014461032113481103,-0.01677048887237073,0.028537304441330364,-0.1952047952466334,0.09724493511261499,-0.14906242262695715,-0.04974160613820896,-0.025179799401528424,-0.1951848054152176,-0.05944555862768469,0.08304484184934596,,0.03133958266917632,0.27260745803331043,0.029939392486080196,-0.013500219188049566,0.04053193938630267,0.07340509040229412,0.026983646449623234,0.06130152802467048,-0.055926276431857255,-0.01251981736215108,0.10485650537820712,-0.14384442380373824,-0.17350142758177364,-0.1952105650751464,-0.14753251046001462,-0.10615395060151785,-0.007258746516058196,1.0,-0.15175470361358648,-0.04996514121168821,0.011865178216444451,-0.019203840835519605,-0.053429047227478266,-0.19519155600447036,0.1698384762377554,0.005677847346382783,-0.012707796596117132,-0.054300085685931844,-0.1870127354918379,-0.09129824566512545,-0.1556997659716558,0.16199143026166316,0.06852270135580966,-0.0998157158872689,0.009362150013610397,0.25141083931830177,-0.04893099556206162,-0.3275249882726491,-0.015207406483788256,0.07100280691400503,0.023070885078434047,-0.0026653638620837083,,,,0.007909597236108196,-0.12533544007547434,-0.02563585589911207,0.024042074073072378,-0.17774280470492346,-0.030274702891361464,0.21341854863432436,0.12417357006484493,0.2069308294071589,-0.1677296899159724,0.04023540171169885,-0.09562411822367901,0.18279701617528463,,,0.18700759768416564,0.011996934402332132,-0.037338470336051886,-0.020990819643943403,0.08157257615054761,-0.03952801312738877,-0.06143355506694498,
IMU_AccY,-0.032799373725530226,-0.12922088667521842,0.06660204473591064,-0.1431743187358574,-0.15058169184187103,-0.1351813697423731,-0.49483476889476935,0.15796633868900029,0.12865572789096616,0.14978206311132083,-0.015360653397139169,-0.14571743247700325,-0.2552486858235978,0.04266527761762453,-0.15092365091972484,0.0473679449175924,-0.10571067546244903,0.047586070605018724,-0.11914219804025894,0.004987139714321312,0.011755247043838436,-0.03496167736287198,0.1694978714646093,0.15798010635330928,-0.11576059706827856,0.08262243918078109,0.03194815683978973,-0.02629717275365726,0.15842564658632083,0.014394528896790323,-0.07483006907210311,,0.05532206585024683,0.2053758578386103,0.04781709669296395,0.0052419015769130314,0.01836325074680769,0.03499115847598352,-0.09966736132604162,-0.06768847616167954,0.048449615276419014,0.1021530943126135,0.07944261697346264,0.08846821909364262,0.2764714881916071,0.15797225255236577,0.16678692853246097,0.08182255353012975,-0.0037952582048131566,-0.15175470361358648,1.0,-0.16370294617360276,0.07421325348187953,0.036170182504018114,0.05323202217312741,0.15795053746045662,-0.015888915222930938,-0.06273229286839038,0.11280023681082489,0.04459185620108741,0.19158049055755993,0.1448278565690703,0.060068377813465974,-0.05494105465390703,-0.06951881027157668,0.19245329491676483,-0.022209993587900073,-0.06997126271091267,-0.05560067082396947,0.16998963733361308,0.2037407207481718,0.01117295670504641,0.040284084390337864,-0.00741439497982121,,,,0.029752516978155324,0.03979748131294159,-0.016519244068256313,0.055990963226203005,0.15477427291778445,0.06766617762739088,-0.16241728293517074,-0.07869299387813623,-0.1464504732617581,0.15601051837709193,-0.025398803855821123,-0.06863536534475063,0.05404455056887884,,,0.028215871798653615,0.08179385290875572,0.0003032427567684714,-0.03863354023926176,0.015985111574051025,0.00403177445195087,0.01654467213285421,
IMU_AccZ,0.06260510626271994,-0.036368401910145405,0.018268332002393722,0.2026117763603411,0.092190510939527,-0.06053971128754375,0.05969333815344078,0.07371412100407271,-0.10316417319840505,-0.1496880943316112,0.012488575942576553,0.14619533702855386,0.07147053609839925,0.05898216314619085,-0.1163118583654558,0.060690705984361916,-0.008303518378119296,0.03327737251687193,-0.05096132428826772,0.007175527021426102,-0.001753001284683686,-0.06764113706553479,-0.11903348652355664,0.07370414179959257,0.016444820436363035,0.019954464311988378,0.048395315126212195,-0.07650098956015698,0.07369662794102107,0.024532370058694537,0.0065701977954674105,,0.015106740530599534,-0.09057970422584134,0.04736566987366069,0.006007452646723431,-0.029012594579113947,-0.046692454981672196,0.05129036950641628,0.05746157217149458,-0.023295889252245378,-0.11896818038658072,-0.10633043012406178,-0.1660500585299888,-0.17969666103338508,0.07370936044060579,0.043811255684435876,-0.03990676620336401,0.007096434292912704,-0.04996514121168821,-0.16370294617360276,1.0,-0.02219054212257031,-0.12317719771375328,0.001002086178842798,0.07371359033962485,-0.20578346347813986,-0.11446027872193497,-0.07616139548970208,0.033211700055313924,-0.06791950304920472,-0.0031710269173298,-0.14121351968676257,0.028453569545661483,0.0029765847881113036,-0.07077220218094932,-0.019539395409743435,0.047780375180733,-0.01945550324150938,0.05690962023164386,-0.03687883428087895,0.00783711081347434,-0.0019168511958175382,0.0006986703511396766,,,,-0.021911789659693724,-0.005657265624513223,-0.0027669392802650216,-0.018213225508069815,0.04464789078412359,0.01165398822771857,-0.08882105782142007,-0.11302469997919501,-0.13466040787990366,0.026861930346062157,-0.043512160903193146,0.049280715401756034,-0.05099343030931989,,,-0.02667932139953198,-0.11364974019466458,-0.02894446399299843,0.03840589569755791,-0.030837646333801382,0.010082978045100933,-0.007677431711350431,
IMU_GyrX,-0.005776129986491073,0.1368177490055602,-0.010224699645109876,-0.008010068587402835,-0.009065001404809488,-0.0020202213765484816,-0.015740650085498704,0.00245799331566515,-0.008531540135112672,0.006808485858400531,-0.008475099533346863,-0.006770569505515487,-0.0027117920954420217,-0.0011528614202777428,0.02746850934397956,-0.0007642990104263815,0.008812015825913469,-0.0003847805094515025,0.0049104549960065445,0.006477444028171688,-0.012751146161934233,0.005436867377296785,0.01125509586511852,0.002457103606239444,0.004906815872268431,-0.003889335796681435,0.0015714563738292169,-0.003012652812380197,0.0024641661702246138,-0.0001584391123819629,0.004842235829925162,,0.006470690227508289,-0.024837319299408418,-0.00024331883815792053,-0.002806903675497859,-0.010030389737941991,-0.0032006576637504955,-0.00011890192960194931,-0.0051730093234249866,-0.0008366172826212263,0.002861749062817258,0.008474044244301926,-0.021096812952373867,0.02865578811953941,0.0024576720137493686,0.004861341422180823,0.016099138019790262,-0.00043110496531040217,0.011865178216444451,0.07421325348187953,-0.02219054212257031,1.0,-0.0046642420338419265,0.0425139894145173,0.002456661729685853,0.0004965107832517933,-0.00018241595946392238,0.0012289252356818532,0.0016393441646819918,0.0070614947596376,-0.10888736743206366,0.014386322204753952,-0.02216138442024437,0.028498787004632157,0.013737165078688808,-0.035486457596333905,0.010311769827537271,0.04046012064110804,-0.00738154382115051,0.09640225495618353,-0.04993470429890117,0.020933769763737713,-0.0035442585007188403,,,,0.0053390182814750595,0.002156251016768268,-0.01851073043418071,-0.003077090953791987,-0.0006846836065187789,0.0037142654838504536,-0.020922568072868738,0.0028347394377719764,-0.008678703954524915,-0.0008940398343874915,-0.003013130739595396,0.0958722231568884,-0.0012721964369349214,,,-0.022497218179980873,0.00930354820666952,0.01372354688123925,-0.00398167679792636,0.00044822889301739295,0.0031764390705743216,-0.006044077218033748,
IMU_GyrY,0.08582633943118526,0.015175557473832577,0.023731901167516077,0.004001933624271196,0.02842036075169018,0.02919124037699411,-0.024567575315555156,0.0015106209329986994,0.010169959218196606,0.005124027670915143,-0.005661439193296069,-0.00423391555657804,-0.023509903728883227,-0.005759000749588627,-0.08947406495862684,-0.005373400471694574,-0.01234256227939529,-0.00022643593131324718,-0.0018840232916108508,0.010340729060693938,0.034931252870783774,0.010028172837987294,0.032560679678878615,0.0015088416290938561,0.017971530252133657,0.011865681243748021,0.01318593639537156,0.02203744171232129,0.0015090676363472416,-0.01363196125462219,-0.025392739146676224,,-0.016974616105411844,0.006509966533175933,-0.0016902530737056866,0.018769688905398797,-0.0001896035831922202,-0.020514789516492615,0.0028691014012121006,-0.011233509568156618,0.027438556096358237,0.0004603994536134828,0.012127847397525798,0.08868172751804262,0.005788268649908525,0.0015048239007437478,0.0016994418300717296,-0.0026442941156868947,-0.0003692150334762503,-0.019203840835519605,0.036170182504018114,-0.12317719771375328,-0.0046642420338419265,1.0,0.06700194734077829,0.00151240540666699,-0.06433749558725775,0.01707869667349843,0.022941682759398074,0.013443371647551206,0.024851956949800736,0.006116552217183536,-0.08765013168094733,0.011876283107684363,-0.04126485273360156,-0.029751693770657194,0.04916930822029221,0.03206146280348252,-0.03504789150444293,0.0008300342258188712,-0.04967247954814642,0.06418500791740811,0.03809812399072537,-0.005649597091906258,,,,-0.003730528286678788,0.007105738731792899,0.01955716926441348,-0.010748749916574582,-0.021274307970435058,-0.0031344198785382,-0.012524660707136268,0.005636681204115829,-0.015843380135576665,-0.01603255488894344,0.0004527308206180097,0.00048550268225352973,0.0028378411191366947,,,0.059699495085383414,0.0238415551671247,0.010622740989611525,-0.0034509891807726198,0.02185462724646358,-0.01416889759549779,0.015212815168022772,
IMU_GyrZ,-0.034705311079063536,0.23367610178644674,-0.003889467642876232,-0.010623669249305393,0.008750619936313878,-0.0563288218664061,0.1734953126559416,-0.003417363986336274,-0.005584239881464327,0.02276123657929146,0.019012251105266387,-0.02278010532249585,0.020836199621248067,0.012892522376594412,-0.018976849541414344,0.01502720319458421,-0.0032975417191898225,0.014164850132530205,0.008324365117033104,-0.014429482274344513,0.06447712994900634,0.01974189185367014,-0.0028433502247779525,-0.003417801506335909,0.04261935557840144,0.01060872140900192,0.013993709126152266,0.05381192691966605,-0.003405616645537006,-0.020011905457400458,-0.021396399150131182,,-0.007109764259367884,-0.015522055108252795,9.391353999862209e-05,0.017038018721608927,0.008094929424587519,0.009228717575571005,0.023011967458946226,0.01078667946815186,-0.009987322282744873,-0.015434066772763105,0.026575311889438857,-0.022648639469080023,-0.03536060649702138,-0.003419965151182487,-0.009509087057885791,-0.027582059564688576,0.001921940531965721,-0.053429047227478266,0.05323202217312741,0.001002086178842798,0.0425139894145173,0.06700194734077829,1.0,-0.0034157590315568487,0.03872671761894052,-0.006806899409183009,-0.0019427339227753402,0.014369738198411093,-0.01411106749651489,-0.034626255174116466,-0.015352592389564289,0.050431833209044416,-0.07294066571190663,0.05608933271636369,0.06635657901207213,0.06086402094637345,0.02398312287041802,-0.013044399401459383,0.12428828093679785,0.07057339206128917,0.007903797571289074,-0.0012035931977996015,,,,0.005102250988510323,0.0028599799222612603,0.06274657108897122,-0.042393857499071236,-0.02740109020363286,-0.010113709356145039,-0.021527705620782704,-0.02884315748727641,-0.036483362461865544,-0.027185223952267995,-0.005366074526638269,0.23824257638586419,-0.013101420969138508,,,-0.04442258854942298,0.0025905103078998648,0.2888518031032184,0.0179012966920901,-0.03042795673862586,-0.02961947532275053,-0.0010624809988349253,
IMU_TimeMS,0.022232550242371783,0.009672324960314104,-0.21938539560073003,0.0667209316710566,0.04901011650429756,-0.14769294768971022,-0.11153610181909325,0.9999995631166715,-0.20532192286247594,-0.05107509572106137,-0.13084919771431014,0.05327160185718508,-0.3425849216301992,-0.06933086619016204,-0.14240931547272573,-0.06777172853939449,-0.1630435141201847,-0.09220065279321778,-0.03793077155332119,0.2772253423320179,-0.2124582767804099,-0.12013325644618009,0.14423352300008022,0.9999990675073333,-0.002827222063628054,0.9831840783577943,0.9968355047635243,0.07482345617712072,0.9999902644318117,-0.05356000876471075,-0.682864425331999,,0.17708986627603535,,0.011295464206733342,-0.036214392619805524,-0.045826124027678265,-0.07446534085728858,-0.012468383448340744,-0.39121851689536663,-0.09515533380414276,0.03401638168865194,-0.05741860223417209,0.020424593561278567,0.010360956805866264,0.9999978577728427,0.8695582908770046,0.11586442660430153,0.03654314022756325,-0.19519155600447036,0.15795053746045662,0.07371359033962485,0.002456661729685853,0.00151240540666699,-0.0034157590315568487,1.0,-0.07128841024647854,-0.9241317963127336,-0.12058937333317574,0.4862282382609046,0.5621442093591287,0.30828091104988636,0.1018829569923716,-0.580263891766313,0.12763877067968663,-0.00980992721688756,-0.45298982693610057,-0.6042972046707031,0.3992768128222819,0.9349637323577551,-0.07829374005374894,-0.34055037326834253,-0.13151709582120957,0.027392216185268433,,,,-0.26155499462198206,-0.19900360217211266,-0.05339163480655703,0.2692503160602764,0.9440110484275623,0.040929475489225486,-0.14845625318352512,0.03883891992851645,-0.14644303235267647,0.9294023199919895,-0.050866910322099966,0.1282608650716762,,,,-0.029693429328483133,-0.09650860777857082,-0.00399947618978156,-0.039843272831993404,0.09464053064501647,0.2147596673656226,0.07348200221942862,
MAG_MagZ,-0.08881179319624713,0.1433785219762522,-0.12283280466180088,-0.12152192217964419,-0.15236001308113706,0.2114561877561104,0.15534997788656918,-0.07128442465958994,0.08011005102362362,0.19464636908868382,0.06821931677958021,-0.19869008387758688,0.06700947645721096,0.07709119744373279,-0.0733691431035162,0.07660625624934939,0.0690043767083332,0.029889066632139506,0.0840497854422281,0.029355635513898866,0.05954428394385474,0.13934199438725914,-0.08833498984226465,-0.07128126357140607,0.09550799758303277,-0.2757465291516643,-0.06627153832432299,0.06502215979044418,-0.07100970336707699,-0.051044200556636235,0.21520702723806615,,-0.05281012755875377,0.05064655436117764,-0.047435726945140484,0.05789223621002426,0.3210898798881257,0.23450413720635943,-0.1056510344864355,0.1067804917371225,0.06575180185972279,0.1244594551929673,0.18953179477138898,-0.011137516077989264,0.1875609215858486,-0.07127031450471513,-0.04513085673652358,-0.035561054838158655,-0.006664181802452234,0.1698384762377554,-0.015888915222930938,-0.20578346347813986,0.0004965107832517933,-0.06433749558725775,0.03872671761894052,-0.07128841024647854,1.0,-0.22079294680704242,-0.017276355587860195,0.00524956766532903,-0.12214198331239876,-0.1641766060492068,0.3416464996769841,-0.05536628640340988,0.046996449196070086,0.12633269440160677,0.017166257401104744,-0.15195675253636662,0.06346751820735619,-0.007361132857530113,-0.014158941982237716,-0.0018514212921553613,0.059605414275711754,-0.010836434926559644,,,,0.1788559046262908,0.15085812841716817,0.02874293293047691,-0.06040544400285058,-0.16305457611409283,-0.03789526682888492,0.045583800331595085,0.10314156710779394,0.07674243245537181,-0.1516488530502044,0.04878514445670379,0.14533137047786734,-0.1312900014586409,,,0.032381052929560054,-0.00011578092878033424,-0.009005148040525721,0.07577936398308092,-0.02873141192949481,-0.029489435782845283,0.02611393329338121,
MAG_OfsX,-0.0011525245693412775,0.006073539780174894,,-0.11155772344864218,-0.31656017296913064,0.026590676531629356,0.09880522966394546,-0.9241317448325062,0.10369731935691731,0.151143244623375,-0.02311919574074338,-0.13855243633911657,-0.03946391686733586,,,,,,,,,,0.18339471368042123,-0.9241322289977723,-0.9115608841400576,0.9637482720587311,,,-0.924129293626738,-0.13921153257946484,-0.931918118684265,,,,,,-0.04146603083252426,-0.022693133048136083,0.11871575048323652,-0.10763569418392292,-0.027112539994426976,0.0007775057322384551,-0.04753374201049389,0.24118075555252488,0.284857429989599,-0.9241272660909182,-0.9241235373727307,0.028635576532689208,,0.005677847346382783,-0.06273229286839038,-0.11446027872193497,-0.00018241595946392238,0.01707869667349843,-0.006806899409183009,-0.9241317963127336,-0.22079294680704242,1.0,0.11308650444495685,,0.029755536122228685,,,,,,,,,-0.9241325744580522,,,0.13249640883816005,-0.015450791894725487,,,,,,,,-0.9205754293784961,-0.2519721124264743,0.5162592729041526,0.21696180533156598,0.4984234936836364,-0.9074188812241886,0.1016546055963441,0.031385557746756866,,,,-0.0022534792216264976,0.7114436979153203,-0.13039618742661796,-0.3839099975389701,0.16229940773348991,0.02776272056099223,0.016878470208046902,
MODE_Mode,0.012541907955885325,-0.04133519904311139,0.08172206325159233,-0.04940936294624553,-0.06959189400730441,0.003074474038905367,-0.11733597213639083,-0.12062507910576314,0.09858706124791994,0.2354807364585932,0.044288818339609404,-0.23310984891153178,-0.2637756296744074,0.146667584463065,0.08839900901188127,0.14743932067878918,0.030325345685901263,0.3647459825311937,-0.053742918386096405,0.20743587553758167,0.4874956437981882,0.06202441240893464,0.2524973894691283,-0.12065981209102797,0.0030571985229308277,-0.010680432571394248,-0.12746192927394515,0.21601511528047262,-0.122488714176343,-0.023366627107611726,-0.18398515772081328,,-0.29854626693654274,,-0.0011359758065674164,0.41238652119311603,0.0019293559763301604,0.020672877664104004,-0.049950078718773515,-0.023072821586935043,0.04786888223243666,0.08164258113586534,0.14833651723335345,0.2002615995318548,0.0808567212857763,-0.12066823403892998,-0.01541531473024774,0.02666372486260809,0.02145256668455462,-0.012707796596117132,0.11280023681082489,-0.07616139548970208,0.0012289252356818532,0.022941682759398074,-0.0019427339227753402,-0.12058937333317574,-0.017276355587860195,0.11308650444495685,1.0,-0.18399879310795497,0.3439212765557822,-0.06217640018278388,0.35303384976748997,0.10742983501854111,-0.14647867059295108,0.32623913142174055,0.13253827258853845,0.057838510637466534,-0.08779515222608174,-0.0432286826092333,0.25050411705672515,-0.039602395863913065,0.30572995398253294,-0.04034926849053943,,,,-0.16319535163681045,0.24998056319157808,0.37586850474481015,-0.17110742244483376,-0.21881102617262957,0.07391824743247158,-0.16425782289256954,-0.08870201484427942,-0.15737228390367178,-0.21577475201713506,0.04369750135110462,0.016701572357470162,-0.2449548300144772,,,-0.005316561298504245,0.20892196400942536,-0.033203443028829105,-0.362355105921763,0.06322723911262595,0.05101658512602857,-0.12675313187991505,
MODE_ThrCrs,-0.0579883246438444,0.06193534503810863,-0.15375618282929884,0.1916052946757497,0.07618291002010857,-0.025618004541093677,0.039173103057246084,0.4861888122387541,-0.15259909177870432,0.1787155758672387,-0.09509233011197193,-0.1787061143071106,-0.36505290816131053,0.14483300125342985,-0.11059794571393722,0.1444004654155414,0.008047741478822715,-0.12649882095684037,0.00861146319850154,0.0670732619713137,-0.03452488413022506,0.15490058812673813,0.14865084319951483,0.4861691561337932,0.1531787377206693,0.5103511511868752,0.5101602422908589,0.16823181584196215,0.487822139067164,-0.20419667890009882,-0.4416722145855322,,0.06990777188797224,,0.0006855738845951561,0.28564874735556445,0.1437747375016625,-0.17811005061579754,0.15035977010760143,-0.32539337711295124,-0.019620548894710793,-0.25866431799583944,0.14458619125177147,-0.04487083840432393,,0.4863146770872345,0.48630648280934696,-0.022881657352933384,,-0.054300085685931844,0.04459185620108741,0.033211700055313924,0.0016393441646819918,0.013443371647551206,0.014369738198411093,0.4862282382609046,0.00524956766532903,,-0.18399879310795497,1.0,,0.13432296251564493,0.26242043997166276,-0.316902267747388,-0.1324391842811475,0.06821145993796193,-0.21648588103781433,-0.2888622609727278,0.12120272668238913,0.5687999657690923,0.09065764938640075,-0.18838942168578196,0.009183446330678257,-0.0024631303008423987,,,,0.04953386387842331,-0.11463711555094402,-0.10856430227046185,0.29102933956432575,0.5140277418421821,0.036540661372290374,0.15785406724063064,0.22919084350862295,0.2445005367907612,0.5048723566052786,-0.025919616800673857,0.1678416935561918,,,,-0.055342197133929266,0.21240544753776883,-0.04237452458975982,-0.4139573545500313,-0.0074803202771777525,-0.14149505310165653,-0.06694318054412783,
MSG_Message,0.10406603358680293,-0.06881193561925615,,-0.023542220060351306,-0.22271605819993262,-0.14500951980978277,-0.20046127284124196,0.5621397055212127,-0.014430991605111113,0.01405295671566864,-0.06744507419101893,-0.002008029082600826,-0.17236170599357747,,,,,,,,,,0.23633823765727588,0.5622447737601209,-0.2660408917686004,0.6615708744786343,,,0.5635909537019951,-0.16162403188966298,-0.5812198159867437,,,,,,-0.09806259546177849,-0.06079233296375439,-0.11588509615589701,-0.20560610447864866,0.09982547142564888,0.2825571611668446,0.05442172900167622,0.11884458211005752,0.11068392307797575,0.5621503011898866,0.3336830118680714,0.05068813712086577,0.10992255046305795,-0.1870127354918379,0.19158049055755993,-0.06791950304920472,0.0070614947596376,0.024851956949800736,-0.01411106749651489,0.5621442093591287,-0.12214198331239876,0.029755536122228685,0.3439212765557822,,1.0,,,,,,,,,0.5622493562200845,,,0.5683196512212112,-0.0797406070028396,,,,,,,,0.45324743390538424,-0.020387883717766574,-0.31027843016979983,-0.0038002737334285976,-0.29123213831407896,0.4512488984326297,-0.006104226840274803,-0.01705611009411508,,,,0.060839573120570554,0.30360424036898387,-0.2608811669471999,-0.21265701468151973,0.026182668719209806,0.11787922063974317,0.17110369549576884,
NTUN_DAccX,-0.044350054833546676,-0.5300737251519111,-0.06061905341253877,-0.013802271604914878,0.030776338806326204,-0.10051788563479226,-0.29897089344039296,0.3082736723442405,-0.11480813643946025,0.1537931964738484,-0.09332171064201718,-0.15378387073399738,-0.41532773738984013,-0.01304276978130417,-0.008826104903265472,-0.019163331671819404,-0.03164368643960479,0.07394990063153911,-0.21008295748881578,-0.0004704135798978274,-0.31014687505993077,-0.19094740104836117,-0.11354865953330581,0.30824905530678476,-0.10776899559110914,0.2989737427223188,0.30832651803319716,-0.2033177683483959,0.3078961344488725,0.08020205527044118,-0.009521363247011722,,0.07172473180925033,-0.28655347734954295,0.01696328429021985,-0.03432375446645569,-0.11164475500376986,-0.005857157406764887,0.22112671901869219,-0.3205103734593013,-0.3061729557651053,-0.188118558123519,-0.0493250643039996,-0.062247822196316194,-0.2284665662620116,0.308288855550646,0.30831139949628056,0.09810807127240165,,-0.09129824566512545,0.1448278565690703,-0.0031710269173298,-0.10888736743206366,0.006116552217183536,-0.034626255174116466,0.30828091104988636,-0.1641766060492068,,-0.06217640018278388,0.13432296251564493,,1.0,-0.1881334450277321,-0.19415041766877314,-0.13092651537009692,0.32246337783448986,-0.19632606179385334,-0.43600542044547697,-0.055558509722641286,0.28268487386297997,-0.03684982448326948,-0.14565499839708487,-0.04805674724856912,0.005183191794628923,,,,-0.17631156569279496,-0.24125149048447314,-0.5241152227485344,-0.02624779137037938,0.3200719097435091,0.08382035484683602,0.12367215321693721,0.01971790522013655,0.061994418329236474,0.3392372141087384,-0.039854998715231314,-0.2414227692713855,-0.040646215520237464,,,0.17304348102363684,-0.11637421641272444,-0.02004392363145299,-0.21549845083870212,0.021409950020180556,0.3369315832838196,-0.017429245101336675,
NTUN_DAccY,-0.46972609232460844,0.04971694529058497,-0.054853662698514924,-0.03351194802575995,-0.07133975176443812,-0.35200742689577225,0.10453198007374358,0.10189210393014018,-0.11386934921989744,0.16587218776791432,0.04685477346951545,-0.16584824378054838,0.22150791151726798,0.016720435047743495,-0.1457460264200744,0.034994503704132957,-0.1372601656490298,0.0013432209653648636,0.11667137901597295,0.2140223702414304,0.4125062974583031,0.02747983814601938,-0.08398622368363313,0.10189584161611809,-0.09510822588100587,-0.019817709731793656,0.07979168389654741,-0.006890979116876046,0.10061193241488087,-0.0482137463260727,0.09245697759705494,,0.03003014401558924,0.29037963783361276,-0.06434591454528438,0.00475367274969906,0.13322995038987867,0.05128370524557781,-0.049767399902397425,-0.13230595187745872,0.24208379127836643,0.0409196975922945,0.058742520651726464,0.02117668089014875,0.3008423674608512,0.1018422797639597,0.10184961956554799,0.02944157966167195,,-0.1556997659716558,0.060068377813465974,-0.14121351968676257,0.014386322204753952,-0.08765013168094733,-0.015352592389564289,0.1018829569923716,0.3416464996769841,,0.35303384976748997,0.26242043997166276,,-0.1881334450277321,1.0,0.0294162063300884,-0.21617506686080654,0.41334332059813766,0.28466591448739204,-0.030808719742592666,-0.22771284221298824,0.09248586623463473,0.29706929646810554,-0.022765368794430703,0.05855301667393415,-0.006315273774222401,,,,-0.046331559385402656,0.07729781255021884,0.7038168969844577,0.23051112227393816,-0.4131001022116658,-0.11017370830582224,-0.040092163752701575,0.18649755884859118,0.18713270632050374,-0.44805265225639723,0.0409899513943781,0.2677089545045099,0.0880337550668701,,,-0.1353692306838238,0.12569390761602395,0.0672100770498432,0.24546678767093347,-0.035578058369405474,0.47959804600987277,0.032974764903580596,
NTUN_DPosX,0.21422214913894555,0.053407145306134926,-0.015302454640474868,-0.04953857575885331,0.02252221514676715,0.17737844325470975,0.011444043009604866,-0.5802541992801796,-0.03171650946035749,-0.14989480144019904,0.13473016008030336,0.15007058324447492,0.6728246393562961,-0.084723992907047,0.08960749311515326,-0.09056722383534324,0.16197307326894245,-0.044909880386615725,0.23359895043173895,0.6402454232406516,0.4227877557191139,0.08112254129094901,0.03709298896059566,-0.5802490118438317,0.052027704224424626,-0.3586564445097056,-0.6013348685672316,0.0036150176559423355,-0.5825245175817516,-0.0020306614100122355,0.044744249338087135,,-0.29433084997052417,0.09016015723798933,0.04351244180694325,0.0023201805010350657,-0.14677060609920128,-0.04511775080311729,-0.0032171205526528406,0.21193510164842622,-0.07028952298798874,0.01966708060595978,-0.02883375718528003,0.00010711563619342224,-0.44416749829390534,-0.5801148687907195,-0.58024328635401,-0.18279906037048504,,0.16199143026166316,-0.05494105465390703,0.028453569545661483,-0.02216138442024437,0.011876283107684363,0.050431833209044416,-0.580263891766313,-0.05536628640340988,,0.10742983501854111,-0.316902267747388,,-0.19415041766877314,0.0294162063300884,1.0,-0.31140691298372,0.21376029361273002,0.17445077104073578,0.7222132182795962,-0.41495232826663275,-0.6969081528093124,0.07449278707156745,0.1521407954839161,0.06680233789684963,-0.00720500969099001,,,,-0.06652331317276264,-0.11430954892226552,0.5760050043048337,0.24535872629213373,-0.18646678911780368,-0.10312114290331009,0.14012973101402662,0.008875221886736367,0.09803374078771972,-0.22893926482473118,0.03396572617483193,0.07956736483027595,0.1483993706557762,,,0.06652775283507215,0.09214481948573237,-0.02366370935734984,0.2979962214076825,0.058347991254441435,-0.2378844763517055,0.058051774802968165,
NTUN_DPosY,-0.02343310700489597,0.13763287878533945,0.14456841846706955,0.04244950606119783,-0.0924466309598946,0.030320985034781194,0.14998241336034232,0.12763312006485597,0.1481260109547614,-0.05481991960738616,-0.06372696263780098,0.05467661909652899,-0.08344460815555882,-0.09065344561892935,0.08047464894748282,-0.08043158442025418,-0.0847765565056762,-0.13568952782751145,-0.17078805719650605,-0.6604044612106338,-0.3670963743153961,-0.14433146933890828,-0.12588420090630822,0.12763281211874292,-0.1192364556614002,0.12620305207322313,0.1562183322096074,-0.19483631851885583,0.12923197469463496,0.2268778852178608,0.14701329149006437,,0.22242622993764122,-0.5002239115762664,0.04571022411552774,-0.07747948290581236,-0.23673322428084825,0.2242431923255046,0.08766523322266416,-0.0028331897105055848,0.23898103818262964,-0.0879873381643609,-0.30613158657089223,-0.38860853730172934,-0.15892920129815488,0.12749142729764948,0.12762799670548383,0.19186599908343022,,0.06852270135580966,-0.06951881027157668,0.0029765847881113036,0.028498787004632157,-0.04126485273360156,-0.07294066571190663,0.12763877067968663,0.046996449196070086,,-0.14647867059295108,-0.1324391842811475,,-0.13092651537009692,-0.21617506686080654,-0.31140691298372,1.0,-0.21650256266186113,-0.44944866411475204,-0.17314428097595913,0.8405744998803132,0.2641253946883428,-0.059333986600320826,-0.4093069169375848,-0.059215554738831104,0.006386732248648017,,,,-0.011706158989144809,-0.1250153391636226,-0.4098471454007256,-0.41187604250649845,0.389502474025341,0.05728370125109978,-0.1827876281201656,-0.25213610034889283,-0.3600604454971261,0.42632684467727555,-0.0720372140586666,-0.20282282303948543,-0.3232460054754324,,,0.1599471113587727,-0.19833947223108994,-0.08071906069975307,-0.25691945846993325,0.09174820688436544,-0.5753104563397986,-0.05093939556462838,
